"","dataset","id","social","opponent","choice","opchoice","payoff","rt","trial","run","code"
"1",1,10001,"non-social","learner",0,0,1,0.671,1,1,1000100101
"2",1,10001,"non-social","learner",0,0,1,1.053,2,1,1000100101
"3",1,10001,"non-social","learner",0,1,0,0.5,3,1,1000100101
"4",1,10001,"non-social","learner",0,1,0,0.396,4,1,1000100101
"5",1,10001,"non-social","learner",0,1,0,1.614,5,1,1000100101
"6",1,10001,"non-social","learner",1,1,1,0.413,6,1,1000100101
"7",1,10001,"non-social","learner",1,1,1,0.592,7,1,1000100101
"8",1,10001,"non-social","learner",1,0,0,1.165,8,1,1000100101
"9",1,10001,"non-social","learner",0,0,1,0.798,9,1,1000100101
"10",1,10001,"non-social","learner",0,0,1,0.44,10,1,1000100101
"11",1,10001,"non-social","learner",1,1,1,0.341,11,1,1000100101
"12",1,10001,"non-social","learner",1,0,0,0.315,12,1,1000100101
"13",1,10001,"non-social","learner",0,0,1,0.307,13,1,1000100101
"14",1,10001,"non-social","learner",1,1,1,0.68,14,1,1000100101
"15",1,10001,"non-social","learner",0,0,1,1.144,15,1,1000100101
"16",1,10001,"non-social","learner",1,1,1,0.961,16,1,1000100101
"17",1,10001,"non-social","learner",0,0,1,1.278,17,1,1000100101
"18",1,10001,"non-social","learner",1,0,0,1.078,18,1,1000100101
"19",1,10001,"non-social","learner",1,0,0,1.876,19,1,1000100101
"20",1,10001,"non-social","sequencer",0,1,0,0.446,20,1,1000100001
"21",1,10001,"non-social","sequencer",1,1,1,0.405,21,1,1000100001
"22",1,10001,"non-social","sequencer",1,1,1,0.472,22,1,1000100001
"23",1,10001,"non-social","sequencer",0,0,1,1.244,23,1,1000100001
"24",1,10001,"non-social","sequencer",0,0,1,0.422,24,1,1000100001
"25",1,10001,"non-social","sequencer",1,1,1,1.333,25,1,1000100001
"26",1,10001,"non-social","sequencer",0,0,1,0.377,26,1,1000100001
"27",1,10001,"non-social","sequencer",1,0,0,0.382,27,1,1000100001
"28",1,10001,"non-social","sequencer",0,1,0,1.577,28,1,1000100001
"29",1,10001,"non-social","sequencer",0,1,0,0.512,29,1,1000100001
"30",1,10001,"non-social","sequencer",1,1,1,0.398,30,1,1000100001
"31",1,10001,"non-social","sequencer",1,0,0,0.387,31,1,1000100001
"32",1,10001,"non-social","sequencer",0,0,1,0.819,32,1,1000100001
"33",1,10001,"non-social","sequencer",0,1,0,0.378,33,1,1000100001
"34",1,10001,"non-social","sequencer",1,0,0,0.798,34,1,1000100001
"35",1,10001,"non-social","sequencer",1,0,0,0.5,35,1,1000100001
"36",1,10001,"non-social","sequencer",1,1,1,1.964,36,1,1000100001
"37",1,10001,"non-social","sequencer",0,1,0,0.47,37,1,1000100001
"38",1,10001,"non-social","learner",0,0,1,-16.349,39,1,1000100101
"39",1,10001,"non-social","learner",0,1,0,-12.816,40,1,1000100101
"40",1,10001,"non-social","learner",1,1,1,1.629,41,1,1000100101
"41",1,10001,"non-social","learner",0,0,1,0.713,42,1,1000100101
"42",1,10001,"non-social","learner",1,0,0,0.516,43,1,1000100101
"43",1,10001,"non-social","learner",0,0,1,-6.552,45,1,1000100101
"44",1,10001,"non-social","learner",0,1,0,0.492,46,1,1000100101
"45",1,10001,"non-social","learner",1,1,1,1.635,47,1,1000100101
"46",1,10001,"non-social","learner",0,0,1,0.37,48,1,1000100101
"47",1,10001,"non-social","learner",1,1,1,0.341,49,1,1000100101
"48",1,10001,"non-social","learner",0,0,1,0.682,50,1,1000100101
"49",1,10001,"non-social","learner",1,1,1,0.772,51,1,1000100101
"50",1,10001,"non-social","learner",0,0,1,0.387,52,1,1000100101
"51",1,10001,"non-social","learner",1,1,1,0.355,53,1,1000100101
"52",1,10001,"non-social","learner",0,1,0,0.323,54,1,1000100101
"53",1,10001,"non-social","learner",1,0,0,0.328,55,1,1000100101
"54",1,10001,"non-social","learner",1,0,0,0.434,56,1,1000100101
"55",1,10001,"non-social","learner",0,0,1,0.26,57,1,1000100101
"56",1,10001,"non-social","sequencer",1,1,1,0.644,58,1,1000100001
"57",1,10001,"non-social","sequencer",0,1,0,1.375,59,1,1000100001
"58",1,10001,"non-social","sequencer",1,0,0,0.623,60,1,1000100001
"59",1,10001,"non-social","sequencer",0,0,1,0.553,61,1,1000100001
"60",1,10001,"non-social","sequencer",1,0,0,0.312,62,1,1000100001
"61",1,10001,"non-social","sequencer",0,1,0,-6.787,64,1,1000100001
"62",1,10001,"non-social","sequencer",1,0,0,0.24,65,1,1000100001
"63",1,10001,"non-social","sequencer",0,1,0,0.45,66,1,1000100001
"64",1,10001,"non-social","sequencer",0,1,0,0.629,67,1,1000100001
"65",1,10001,"non-social","sequencer",0,0,1,0.947,68,1,1000100001
"66",1,10001,"non-social","sequencer",1,0,0,-0.738,69,1,1000100001
"67",1,10001,"non-social","sequencer",1,0,0,0.362,70,1,1000100001
"68",1,10001,"non-social","sequencer",0,1,0,0.612,71,1,1000100001
"69",1,10001,"non-social","sequencer",1,0,0,-8.185,73,1,1000100001
"70",1,10001,"non-social","sequencer",0,0,1,0.98,74,1,1000100001
"71",1,10001,"non-social","sequencer",0,1,0,0.666,75,1,1000100001
"72",1,10001,"non-social","sequencer",1,0,0,0.238,76,1,1000100001
"73",1,10001,"non-social","learner",1,0,0,0.481,77,2,1000100102
"74",1,10001,"non-social","learner",0,1,0,0.258,78,2,1000100102
"75",1,10001,"non-social","learner",0,1,0,0.374,79,2,1000100102
"76",1,10001,"non-social","learner",0,1,0,0.335,80,2,1000100102
"77",1,10001,"non-social","learner",1,1,1,0.313,81,2,1000100102
"78",1,10001,"non-social","learner",1,0,0,0.523,82,2,1000100102
"79",1,10001,"non-social","learner",0,0,1,0.791,83,2,1000100102
"80",1,10001,"non-social","learner",1,1,1,0.916,84,2,1000100102
"81",1,10001,"non-social","learner",0,0,1,0.467,85,2,1000100102
"82",1,10001,"non-social","learner",1,1,1,0.424,86,2,1000100102
"83",1,10001,"non-social","learner",0,0,1,0.678,87,2,1000100102
"84",1,10001,"non-social","learner",1,1,1,0.286,88,2,1000100102
"85",1,10001,"non-social","learner",0,0,1,0.381,89,2,1000100102
"86",1,10001,"non-social","learner",1,1,1,0.714,90,2,1000100102
"87",1,10001,"non-social","learner",0,0,1,0.577,91,2,1000100102
"88",1,10001,"non-social","learner",1,1,1,0.296,92,2,1000100102
"89",1,10001,"non-social","learner",0,1,0,0.45,93,2,1000100102
"90",1,10001,"non-social","learner",0,1,0,1.556,94,2,1000100102
"91",1,10001,"non-social","learner",1,0,0,0.963,95,2,1000100102
"92",1,10001,"non-social","sequencer",0,0,1,0.447,96,2,1000100002
"93",1,10001,"non-social","sequencer",0,1,0,0.551,97,2,1000100002
"94",1,10001,"non-social","sequencer",0,1,0,0.845,98,2,1000100002
"95",1,10001,"non-social","sequencer",0,0,1,0.308,99,2,1000100002
"96",1,10001,"non-social","sequencer",0,0,1,0.329,100,2,1000100002
"97",1,10001,"non-social","sequencer",0,1,0,0.388,101,2,1000100002
"98",1,10001,"non-social","sequencer",1,1,1,0.266,102,2,1000100002
"99",1,10001,"non-social","sequencer",0,0,1,0.287,103,2,1000100002
"100",1,10001,"non-social","sequencer",0,0,1,0.3,104,2,1000100002
"101",1,10001,"non-social","sequencer",1,1,1,0.299,105,2,1000100002
"102",1,10001,"non-social","sequencer",1,1,1,0.313,106,2,1000100002
"103",1,10001,"non-social","sequencer",0,0,1,0.294,107,2,1000100002
"104",1,10001,"non-social","sequencer",0,0,1,0.356,108,2,1000100002
"105",1,10001,"non-social","sequencer",1,1,1,0.448,109,2,1000100002
"106",1,10001,"non-social","sequencer",1,1,1,0.301,110,2,1000100002
"107",1,10001,"non-social","sequencer",0,0,1,0.353,111,2,1000100002
"108",1,10001,"non-social","sequencer",0,0,1,0.39,112,2,1000100002
"109",1,10001,"non-social","sequencer",1,1,1,-3.026,113,2,1000100002
"110",1,10001,"non-social","sequencer",1,1,1,0.375,114,2,1000100002
"111",1,10001,"non-social","learner",0,0,1,0.453,115,2,1000100102
"112",1,10001,"non-social","learner",1,1,1,0.284,116,2,1000100102
"113",1,10001,"non-social","learner",0,0,1,0.345,117,2,1000100102
"114",1,10001,"non-social","learner",1,0,0,0.524,118,2,1000100102
"115",1,10001,"non-social","learner",1,0,0,1.708,119,2,1000100102
"116",1,10001,"non-social","learner",1,0,0,0.312,120,2,1000100102
"117",1,10001,"non-social","learner",0,0,1,1.149,121,2,1000100102
"118",1,10001,"non-social","learner",0,0,1,0.462,122,2,1000100102
"119",1,10001,"non-social","learner",0,0,1,0.33,123,2,1000100102
"120",1,10001,"non-social","learner",0,1,0,0.341,124,2,1000100102
"121",1,10001,"non-social","learner",1,1,1,0.279,125,2,1000100102
"122",1,10001,"non-social","learner",1,1,1,0.263,126,2,1000100102
"123",1,10001,"non-social","learner",1,0,0,0.302,127,2,1000100102
"124",1,10001,"non-social","learner",0,0,1,0.287,128,2,1000100102
"125",1,10001,"non-social","learner",0,1,0,0.439,129,2,1000100102
"126",1,10001,"non-social","learner",1,1,1,0.319,130,2,1000100102
"127",1,10001,"non-social","learner",1,1,1,0.482,131,2,1000100102
"128",1,10001,"non-social","learner",1,0,0,0.298,132,2,1000100102
"129",1,10001,"non-social","learner",0,0,1,0.257,133,2,1000100102
"130",1,10001,"non-social","sequencer",1,0,0,0.337,134,2,1000100002
"131",1,10001,"non-social","sequencer",1,1,1,0.835,135,2,1000100002
"132",1,10001,"non-social","sequencer",1,1,1,0.329,136,2,1000100002
"133",1,10001,"non-social","sequencer",0,0,1,0.345,137,2,1000100002
"134",1,10001,"non-social","sequencer",0,0,1,0.593,138,2,1000100002
"135",1,10001,"non-social","sequencer",1,1,1,0.394,139,2,1000100002
"136",1,10001,"non-social","sequencer",1,1,1,0.419,140,2,1000100002
"137",1,10001,"non-social","sequencer",0,0,1,0.339,141,2,1000100002
"138",1,10001,"non-social","sequencer",0,0,1,0.416,142,2,1000100002
"139",1,10001,"non-social","sequencer",1,1,1,0.326,143,2,1000100002
"140",1,10001,"non-social","sequencer",1,1,1,0.297,144,2,1000100002
"141",1,10001,"non-social","sequencer",0,0,1,0.29,145,2,1000100002
"142",1,10001,"non-social","sequencer",0,0,1,0.306,146,2,1000100002
"143",1,10001,"non-social","sequencer",1,1,1,0.397,147,2,1000100002
"144",1,10001,"non-social","sequencer",1,1,1,0.368,148,2,1000100002
"145",1,10001,"non-social","sequencer",0,0,1,0.474,149,2,1000100002
"146",1,10001,"non-social","sequencer",0,0,1,0.579,150,2,1000100002
"147",1,10001,"non-social","sequencer",1,0,0,0.46,151,2,1000100002
"148",1,10001,"non-social","sequencer",0,1,0,0.389,152,2,1000100002
"149",1,10001,"non-social","learner",0,1,0,0.542,153,3,1000100103
"150",1,10001,"non-social","learner",0,1,0,0.347,154,3,1000100103
"151",1,10001,"non-social","learner",1,1,1,0.244,155,3,1000100103
"152",1,10001,"non-social","learner",1,0,0,0.243,156,3,1000100103
"153",1,10001,"non-social","learner",0,0,1,0.327,157,3,1000100103
"154",1,10001,"non-social","learner",0,0,1,0.335,158,3,1000100103
"155",1,10001,"non-social","learner",1,1,1,0.282,159,3,1000100103
"156",1,10001,"non-social","learner",1,0,0,0.334,160,3,1000100103
"157",1,10001,"non-social","learner",0,0,1,0.433,161,3,1000100103
"158",1,10001,"non-social","learner",0,1,0,0.406,162,3,1000100103
"159",1,10001,"non-social","learner",1,1,1,0.635,163,3,1000100103
"160",1,10001,"non-social","learner",1,0,0,1.25,164,3,1000100103
"161",1,10001,"non-social","learner",1,0,0,0.479,165,3,1000100103
"162",1,10001,"non-social","learner",1,0,0,0.331,166,3,1000100103
"163",1,10001,"non-social","learner",1,0,0,1.104,167,3,1000100103
"164",1,10001,"non-social","learner",0,0,1,0.255,168,3,1000100103
"165",1,10001,"non-social","learner",0,0,1,0.302,169,3,1000100103
"166",1,10001,"non-social","learner",0,1,0,0.281,170,3,1000100103
"167",1,10001,"non-social","learner",1,1,1,0.765,171,3,1000100103
"168",1,10001,"non-social","sequencer",1,1,1,0.406,172,3,1000100003
"169",1,10001,"non-social","sequencer",0,0,1,0.383,173,3,1000100003
"170",1,10001,"non-social","sequencer",0,0,1,0.329,174,3,1000100003
"171",1,10001,"non-social","sequencer",1,1,1,0.27,175,3,1000100003
"172",1,10001,"non-social","sequencer",1,1,1,0.282,176,3,1000100003
"173",1,10001,"non-social","sequencer",0,0,1,0.328,177,3,1000100003
"174",1,10001,"non-social","sequencer",0,0,1,0.854,178,3,1000100003
"175",1,10001,"non-social","sequencer",1,1,1,0.44,179,3,1000100003
"176",1,10001,"non-social","sequencer",1,1,1,0.462,180,3,1000100003
"177",1,10001,"non-social","sequencer",0,0,1,0.406,181,3,1000100003
"178",1,10001,"non-social","sequencer",0,1,0,0.473,182,3,1000100003
"179",1,10001,"non-social","sequencer",1,1,1,-0.607,183,3,1000100003
"180",1,10001,"non-social","sequencer",0,1,0,0.306,184,3,1000100003
"181",1,10001,"non-social","sequencer",1,0,0,0.335,185,3,1000100003
"182",1,10001,"non-social","sequencer",0,0,1,0.293,186,3,1000100003
"183",1,10001,"non-social","sequencer",0,1,0,0.354,187,3,1000100003
"184",1,10001,"non-social","sequencer",1,1,1,0.302,188,3,1000100003
"185",1,10001,"non-social","sequencer",1,0,0,0.865,189,3,1000100003
"186",1,10001,"non-social","sequencer",0,1,0,0.324,190,3,1000100003
"187",1,10001,"non-social","learner",1,1,1,0.561,191,3,1000100103
"188",1,10001,"non-social","learner",0,0,1,0.283,192,3,1000100103
"189",1,10001,"non-social","learner",1,1,1,0.322,193,3,1000100103
"190",1,10001,"non-social","learner",1,1,1,0.339,194,3,1000100103
"191",1,10001,"non-social","learner",1,0,0,0.605,195,3,1000100103
"192",1,10001,"non-social","learner",0,0,1,0.34,196,3,1000100103
"193",1,10001,"non-social","learner",0,0,1,0.303,197,3,1000100103
"194",1,10001,"non-social","learner",0,1,0,0.377,198,3,1000100103
"195",1,10001,"non-social","learner",0,1,0,0.303,199,3,1000100103
"196",1,10001,"non-social","learner",0,1,0,0.453,200,3,1000100103
"197",1,10001,"non-social","learner",1,1,1,0.245,201,3,1000100103
"198",1,10001,"non-social","learner",1,1,1,0.384,202,3,1000100103
"199",1,10001,"non-social","learner",1,0,0,0.579,203,3,1000100103
"200",1,10001,"non-social","learner",0,0,1,0.652,204,3,1000100103
"201",1,10001,"non-social","learner",0,0,1,0.314,205,3,1000100103
"202",1,10001,"non-social","learner",0,1,0,0.337,206,3,1000100103
"203",1,10001,"non-social","learner",1,1,1,0.272,207,3,1000100103
"204",1,10001,"non-social","learner",1,1,1,0.321,208,3,1000100103
"205",1,10001,"non-social","learner",1,0,0,0.474,209,3,1000100103
"206",1,10001,"non-social","sequencer",0,1,0,0.52,210,3,1000100003
"207",1,10001,"non-social","sequencer",0,1,0,0.327,211,3,1000100003
"208",1,10001,"non-social","sequencer",1,0,0,0.29,212,3,1000100003
"209",1,10001,"non-social","sequencer",0,1,0,0.386,213,3,1000100003
"210",1,10001,"non-social","sequencer",1,0,0,0.286,214,3,1000100003
"211",1,10001,"non-social","sequencer",0,0,1,0.756,215,3,1000100003
"212",1,10001,"non-social","sequencer",0,1,0,0.706,216,3,1000100003
"213",1,10001,"non-social","sequencer",1,1,1,0.317,217,3,1000100003
"214",1,10001,"non-social","sequencer",0,1,0,0.274,218,3,1000100003
"215",1,10001,"non-social","sequencer",1,1,1,0.42,219,3,1000100003
"216",1,10001,"non-social","sequencer",0,0,1,0.248,220,3,1000100003
"217",1,10001,"non-social","sequencer",0,0,1,0.282,221,3,1000100003
"218",1,10001,"non-social","sequencer",0,1,0,0.438,222,3,1000100003
"219",1,10001,"non-social","sequencer",1,1,1,0.308,223,3,1000100003
"220",1,10001,"non-social","sequencer",0,1,0,0.244,224,3,1000100003
"221",1,10001,"non-social","sequencer",0,0,1,-6.438,226,3,1000100003
"222",1,10001,"non-social","sequencer",0,1,0,0.467,227,3,1000100003
"223",1,10001,"non-social","sequencer",1,0,0,-2.575,228,3,1000100003
"224",1,10002,"non-social","learner",0,0,1,-0.64,2,1,1000200101
"225",1,10002,"non-social","learner",0,1,0,-1.631,3,1,1000200101
"226",1,10002,"non-social","learner",1,1,1,-0.394,4,1,1000200101
"227",1,10002,"non-social","learner",0,0,1,-1.578,5,1,1000200101
"228",1,10002,"non-social","learner",1,1,1,-1.36,6,1,1000200101
"229",1,10002,"non-social","learner",0,1,0,-3.39,7,1,1000200101
"230",1,10002,"non-social","learner",0,1,0,-0.727,8,1,1000200101
"231",1,10002,"non-social","learner",0,0,1,-2.653,9,1,1000200101
"232",1,10002,"non-social","learner",1,1,1,-0.63,10,1,1000200101
"233",1,10002,"non-social","learner",1,1,1,-3.993,11,1,1000200101
"234",1,10002,"non-social","learner",1,0,0,-3.395,12,1,1000200101
"235",1,10002,"non-social","learner",0,0,1,-3.286,13,1,1000200101
"236",1,10002,"non-social","learner",0,1,0,-0.547,14,1,1000200101
"237",1,10002,"non-social","learner",0,1,0,-1.89,15,1,1000200101
"238",1,10002,"non-social","learner",0,1,0,-2.279,16,1,1000200101
"239",1,10002,"non-social","learner",0,1,0,-2.947,17,1,1000200101
"240",1,10002,"non-social","learner",1,1,1,-5.62,18,1,1000200101
"241",1,10002,"non-social","learner",0,0,1,-0.001,19,1,1000200101
"242",1,10002,"non-social","sequencer",1,1,1,-2.623,20,1,1000200001
"243",1,10002,"non-social","sequencer",0,1,0,-0.231,21,1,1000200001
"244",1,10002,"non-social","sequencer",1,1,1,-0.023,22,1,1000200001
"245",1,10002,"non-social","sequencer",1,0,0,0.697,23,1,1000200001
"246",1,10002,"non-social","sequencer",0,0,1,-0.98,24,1,1000200001
"247",1,10002,"non-social","sequencer",1,1,1,-0.696,25,1,1000200001
"248",1,10002,"non-social","sequencer",0,0,1,-3.861,26,1,1000200001
"249",1,10002,"non-social","sequencer",0,0,1,-6.437,27,1,1000200001
"250",1,10002,"non-social","sequencer",1,1,1,-1.886,28,1,1000200001
"251",1,10002,"non-social","sequencer",1,1,1,-1.354,29,1,1000200001
"252",1,10002,"non-social","sequencer",0,1,0,-1.438,30,1,1000200001
"253",1,10002,"non-social","sequencer",0,0,1,-3.088,31,1,1000200001
"254",1,10002,"non-social","sequencer",1,0,0,-1.402,32,1,1000200001
"255",1,10002,"non-social","sequencer",0,1,0,-0.685,33,1,1000200001
"256",1,10002,"non-social","sequencer",1,0,0,0.182,34,1,1000200001
"257",1,10002,"non-social","sequencer",1,0,0,-2.269,35,1,1000200001
"258",1,10002,"non-social","sequencer",1,1,1,-2.225,36,1,1000200001
"259",1,10002,"non-social","sequencer",1,1,1,-2.486,37,1,1000200001
"260",1,10002,"non-social","sequencer",0,1,0,-4.04,38,1,1000200001
"261",1,10002,"non-social","learner",0,0,1,-14,39,1,1000200101
"262",1,10002,"non-social","learner",0,1,0,1.365,40,1,1000200101
"263",1,10002,"non-social","learner",1,1,1,-0.746,41,1,1000200101
"264",1,10002,"non-social","learner",1,0,0,-4.471,42,1,1000200101
"265",1,10002,"non-social","learner",0,0,1,-0.565,43,1,1000200101
"266",1,10002,"non-social","learner",1,1,1,-0.678,44,1,1000200101
"267",1,10002,"non-social","learner",1,0,0,-0.589,45,1,1000200101
"268",1,10002,"non-social","learner",0,0,1,-1.385,46,1,1000200101
"269",1,10002,"non-social","learner",1,1,1,-3.506,47,1,1000200101
"270",1,10002,"non-social","learner",0,0,1,-2.489,48,1,1000200101
"271",1,10002,"non-social","learner",1,1,1,-3.079,49,1,1000200101
"272",1,10002,"non-social","learner",1,0,0,-5.724,50,1,1000200101
"273",1,10002,"non-social","learner",1,1,1,-1.019,51,1,1000200101
"274",1,10002,"non-social","learner",0,0,1,-1.738,52,1,1000200101
"275",1,10002,"non-social","learner",1,1,1,0.535,53,1,1000200101
"276",1,10002,"non-social","learner",0,1,0,0.479,54,1,1000200101
"277",1,10002,"non-social","learner",1,0,0,-4.909,55,1,1000200101
"278",1,10002,"non-social","learner",1,0,0,0.64,56,1,1000200101
"279",1,10002,"non-social","learner",0,0,1,0.641,57,1,1000200101
"280",1,10002,"non-social","sequencer",1,1,1,-4.871,58,1,1000200001
"281",1,10002,"non-social","sequencer",1,1,1,1.489,59,1,1000200001
"282",1,10002,"non-social","sequencer",0,0,1,0.922,60,1,1000200001
"283",1,10002,"non-social","sequencer",1,0,0,0.686,61,1,1000200001
"284",1,10002,"non-social","sequencer",0,0,1,-1.063,62,1,1000200001
"285",1,10002,"non-social","sequencer",0,1,0,-1.349,63,1,1000200001
"286",1,10002,"non-social","sequencer",1,1,1,-0.791,64,1,1000200001
"287",1,10002,"non-social","sequencer",0,0,1,-0.689,65,1,1000200001
"288",1,10002,"non-social","sequencer",1,1,1,0.83,66,1,1000200001
"289",1,10002,"non-social","sequencer",0,1,0,-3.349,67,1,1000200001
"290",1,10002,"non-social","sequencer",1,0,0,-5.354,68,1,1000200001
"291",1,10002,"non-social","sequencer",1,0,0,-0.764,69,1,1000200001
"292",1,10002,"non-social","sequencer",0,0,1,-0.916,70,1,1000200001
"293",1,10002,"non-social","sequencer",1,1,1,-3.848,71,1,1000200001
"294",1,10002,"non-social","sequencer",0,1,0,-0.936,72,1,1000200001
"295",1,10002,"non-social","sequencer",1,0,0,-1.258,73,1,1000200001
"296",1,10002,"non-social","sequencer",0,0,1,-1.892,74,1,1000200001
"297",1,10002,"non-social","sequencer",0,1,0,-3.218,75,1,1000200001
"298",1,10002,"non-social","sequencer",0,0,1,-4.946,76,1,1000200001
"299",1,10002,"non-social","learner",0,0,1,0.723,77,2,1000200102
"300",1,10002,"non-social","learner",1,1,1,1.061,78,2,1000200102
"301",1,10002,"non-social","learner",0,0,1,0.554,79,2,1000200102
"302",1,10002,"non-social","learner",1,1,1,0.614,80,2,1000200102
"303",1,10002,"non-social","learner",0,0,1,0.601,81,2,1000200102
"304",1,10002,"non-social","learner",1,0,0,0.56,82,2,1000200102
"305",1,10002,"non-social","learner",1,1,1,0.637,83,2,1000200102
"306",1,10002,"non-social","learner",0,0,1,0.608,84,2,1000200102
"307",1,10002,"non-social","learner",0,1,0,0.917,85,2,1000200102
"308",1,10002,"non-social","learner",1,1,1,1.341,86,2,1000200102
"309",1,10002,"non-social","learner",0,0,1,0.767,87,2,1000200102
"310",1,10002,"non-social","learner",0,1,0,0.759,88,2,1000200102
"311",1,10002,"non-social","learner",1,1,1,0.815,89,2,1000200102
"312",1,10002,"non-social","learner",0,0,1,0.927,90,2,1000200102
"313",1,10002,"non-social","learner",1,1,1,0.905,91,2,1000200102
"314",1,10002,"non-social","learner",1,1,1,1.047,92,2,1000200102
"315",1,10002,"non-social","learner",0,0,1,0.757,93,2,1000200102
"316",1,10002,"non-social","learner",1,1,1,0.681,94,2,1000200102
"317",1,10002,"non-social","learner",1,0,0,0.75,95,2,1000200102
"318",1,10002,"non-social","sequencer",1,0,0,1.085,96,2,1000200002
"319",1,10002,"non-social","sequencer",0,1,0,0.457,97,2,1000200002
"320",1,10002,"non-social","sequencer",1,1,1,0.501,98,2,1000200002
"321",1,10002,"non-social","sequencer",0,0,1,0.89,99,2,1000200002
"322",1,10002,"non-social","sequencer",1,0,0,0.983,100,2,1000200002
"323",1,10002,"non-social","sequencer",0,1,0,0.501,101,2,1000200002
"324",1,10002,"non-social","sequencer",1,1,1,1.433,102,2,1000200002
"325",1,10002,"non-social","sequencer",0,0,1,0.865,103,2,1000200002
"326",1,10002,"non-social","sequencer",0,0,1,0.981,104,2,1000200002
"327",1,10002,"non-social","sequencer",1,1,1,0.589,105,2,1000200002
"328",1,10002,"non-social","sequencer",0,1,0,0.548,106,2,1000200002
"329",1,10002,"non-social","sequencer",1,0,0,0.639,107,2,1000200002
"330",1,10002,"non-social","sequencer",0,0,1,0.713,108,2,1000200002
"331",1,10002,"non-social","sequencer",1,1,1,0.451,109,2,1000200002
"332",1,10002,"non-social","sequencer",1,1,1,1.649,110,2,1000200002
"333",1,10002,"non-social","sequencer",0,0,1,0.771,111,2,1000200002
"334",1,10002,"non-social","sequencer",0,0,1,0.914,112,2,1000200002
"335",1,10002,"non-social","sequencer",1,1,1,0.984,113,2,1000200002
"336",1,10002,"non-social","sequencer",0,1,0,0.868,114,2,1000200002
"337",1,10002,"non-social","learner",0,1,0,0.571,115,2,1000200102
"338",1,10002,"non-social","learner",0,1,0,0.54,116,2,1000200102
"339",1,10002,"non-social","learner",0,1,0,1.619,117,2,1000200102
"340",1,10002,"non-social","learner",1,1,1,0.525,118,2,1000200102
"341",1,10002,"non-social","learner",0,1,0,0.54,119,2,1000200102
"342",1,10002,"non-social","learner",1,1,1,0.488,120,2,1000200102
"343",1,10002,"non-social","learner",1,0,0,0.474,121,2,1000200102
"344",1,10002,"non-social","learner",0,0,1,0.487,122,2,1000200102
"345",1,10002,"non-social","learner",1,0,0,0.504,123,2,1000200102
"346",1,10002,"non-social","learner",0,0,1,0.644,124,2,1000200102
"347",1,10002,"non-social","learner",0,1,0,0.568,125,2,1000200102
"348",1,10002,"non-social","learner",1,1,1,0.554,126,2,1000200102
"349",1,10002,"non-social","learner",1,1,1,0.648,127,2,1000200102
"350",1,10002,"non-social","learner",0,0,1,0.71,128,2,1000200102
"351",1,10002,"non-social","learner",1,1,1,1.16,129,2,1000200102
"352",1,10002,"non-social","learner",1,0,0,0.799,130,2,1000200102
"353",1,10002,"non-social","learner",0,0,1,0.671,131,2,1000200102
"354",1,10002,"non-social","learner",1,0,0,0.542,132,2,1000200102
"355",1,10002,"non-social","learner",1,0,0,0.814,133,2,1000200102
"356",1,10002,"non-social","sequencer",1,0,0,0.508,134,2,1000200002
"357",1,10002,"non-social","sequencer",0,1,0,0.584,135,2,1000200002
"358",1,10002,"non-social","sequencer",0,1,0,0.914,136,2,1000200002
"359",1,10002,"non-social","sequencer",1,0,0,0.601,137,2,1000200002
"360",1,10002,"non-social","sequencer",0,0,1,0.401,138,2,1000200002
"361",1,10002,"non-social","sequencer",1,1,1,0.657,139,2,1000200002
"362",1,10002,"non-social","sequencer",0,1,0,0.556,140,2,1000200002
"363",1,10002,"non-social","sequencer",0,0,1,0.6,141,2,1000200002
"364",1,10002,"non-social","sequencer",0,0,1,0.518,142,2,1000200002
"365",1,10002,"non-social","sequencer",1,1,1,0.549,143,2,1000200002
"366",1,10002,"non-social","sequencer",1,1,1,0.945,144,2,1000200002
"367",1,10002,"non-social","sequencer",0,0,1,0.61,145,2,1000200002
"368",1,10002,"non-social","sequencer",0,0,1,0.608,146,2,1000200002
"369",1,10002,"non-social","sequencer",1,1,1,0.917,147,2,1000200002
"370",1,10002,"non-social","sequencer",1,1,1,0.525,148,2,1000200002
"371",1,10002,"non-social","sequencer",0,0,1,0.555,149,2,1000200002
"372",1,10002,"non-social","sequencer",0,0,1,0.699,150,2,1000200002
"373",1,10002,"non-social","sequencer",1,0,0,0.619,151,2,1000200002
"374",1,10002,"non-social","sequencer",0,1,0,0.486,152,2,1000200002
"375",1,10002,"non-social","learner",1,1,1,0.676,153,3,1000200103
"376",1,10002,"non-social","learner",0,0,1,0.599,154,3,1000200103
"377",1,10002,"non-social","learner",1,1,1,0.703,155,3,1000200103
"378",1,10002,"non-social","learner",0,0,1,1.251,156,3,1000200103
"379",1,10002,"non-social","learner",1,1,1,0.621,157,3,1000200103
"380",1,10002,"non-social","learner",0,0,1,0.675,158,3,1000200103
"381",1,10002,"non-social","learner",1,1,1,0.489,159,3,1000200103
"382",1,10002,"non-social","learner",0,0,1,0.655,160,3,1000200103
"383",1,10002,"non-social","learner",1,0,0,0.451,161,3,1000200103
"384",1,10002,"non-social","learner",1,0,0,0.666,162,3,1000200103
"385",1,10002,"non-social","learner",0,0,1,0.538,163,3,1000200103
"386",1,10002,"non-social","learner",1,0,0,0.635,164,3,1000200103
"387",1,10002,"non-social","learner",1,0,0,0.642,165,3,1000200103
"388",1,10002,"non-social","learner",0,0,1,0.425,166,3,1000200103
"389",1,10002,"non-social","learner",1,1,1,0.486,167,3,1000200103
"390",1,10002,"non-social","learner",1,1,1,0.584,168,3,1000200103
"391",1,10002,"non-social","learner",0,0,1,0.411,169,3,1000200103
"392",1,10002,"non-social","learner",0,0,1,0.466,170,3,1000200103
"393",1,10002,"non-social","learner",1,0,0,0.669,171,3,1000200103
"394",1,10002,"non-social","sequencer",1,1,1,0.551,172,3,1000200003
"395",1,10002,"non-social","sequencer",0,0,1,0.615,173,3,1000200003
"396",1,10002,"non-social","sequencer",1,0,0,0.732,174,3,1000200003
"397",1,10002,"non-social","sequencer",0,1,0,0.507,175,3,1000200003
"398",1,10002,"non-social","sequencer",1,1,1,0.509,176,3,1000200003
"399",1,10002,"non-social","sequencer",0,0,1,0.682,177,3,1000200003
"400",1,10002,"non-social","sequencer",0,0,1,0.491,178,3,1000200003
"401",1,10002,"non-social","sequencer",1,1,1,0.397,179,3,1000200003
"402",1,10002,"non-social","sequencer",1,1,1,0.419,180,3,1000200003
"403",1,10002,"non-social","sequencer",0,0,1,0.416,181,3,1000200003
"404",1,10002,"non-social","sequencer",1,1,1,0.381,182,3,1000200003
"405",1,10002,"non-social","sequencer",1,1,1,0.414,183,3,1000200003
"406",1,10002,"non-social","sequencer",0,1,0,0.495,184,3,1000200003
"407",1,10002,"non-social","sequencer",1,0,0,0.414,185,3,1000200003
"408",1,10002,"non-social","sequencer",0,0,1,0.393,186,3,1000200003
"409",1,10002,"non-social","sequencer",1,1,1,0.388,187,3,1000200003
"410",1,10002,"non-social","sequencer",0,1,0,0.451,188,3,1000200003
"411",1,10002,"non-social","sequencer",1,0,0,0.534,189,3,1000200003
"412",1,10002,"non-social","sequencer",1,1,1,0.445,190,3,1000200003
"413",1,10002,"non-social","learner",0,1,0,0.613,191,3,1000200103
"414",1,10002,"non-social","learner",0,1,0,0.364,192,3,1000200103
"415",1,10002,"non-social","learner",1,1,1,0.387,193,3,1000200103
"416",1,10002,"non-social","learner",1,1,1,0.528,194,3,1000200103
"417",1,10002,"non-social","learner",0,0,1,0.497,195,3,1000200103
"418",1,10002,"non-social","learner",0,1,0,0.397,196,3,1000200103
"419",1,10002,"non-social","learner",1,1,1,0.474,197,3,1000200103
"420",1,10002,"non-social","learner",1,1,1,0.63,198,3,1000200103
"421",1,10002,"non-social","learner",0,0,1,0.404,199,3,1000200103
"422",1,10002,"non-social","learner",0,1,0,0.415,200,3,1000200103
"423",1,10002,"non-social","learner",1,1,1,0.4,201,3,1000200103
"424",1,10002,"non-social","learner",0,1,0,0.42,202,3,1000200103
"425",1,10002,"non-social","learner",1,1,1,0.328,203,3,1000200103
"426",1,10002,"non-social","learner",1,0,0,0.38,204,3,1000200103
"427",1,10002,"non-social","learner",0,0,1,0.427,205,3,1000200103
"428",1,10002,"non-social","learner",1,1,1,0.324,206,3,1000200103
"429",1,10002,"non-social","learner",1,1,1,0.473,207,3,1000200103
"430",1,10002,"non-social","learner",0,0,1,0.313,208,3,1000200103
"431",1,10002,"non-social","learner",0,0,1,0.366,209,3,1000200103
"432",1,10002,"non-social","sequencer",1,1,1,1.168,210,3,1000200003
"433",1,10002,"non-social","sequencer",0,1,0,0.667,211,3,1000200003
"434",1,10002,"non-social","sequencer",1,0,0,0.314,212,3,1000200003
"435",1,10002,"non-social","sequencer",0,1,0,0.474,213,3,1000200003
"436",1,10002,"non-social","sequencer",1,0,0,0.368,214,3,1000200003
"437",1,10002,"non-social","sequencer",0,0,1,0.354,215,3,1000200003
"438",1,10002,"non-social","sequencer",1,1,1,0.435,216,3,1000200003
"439",1,10002,"non-social","sequencer",0,1,0,0.386,217,3,1000200003
"440",1,10002,"non-social","sequencer",0,1,0,0.295,218,3,1000200003
"441",1,10002,"non-social","sequencer",1,1,1,0.261,219,3,1000200003
"442",1,10002,"non-social","sequencer",1,0,0,0.312,220,3,1000200003
"443",1,10002,"non-social","sequencer",0,0,1,0.301,221,3,1000200003
"444",1,10002,"non-social","sequencer",0,1,0,0.337,222,3,1000200003
"445",1,10002,"non-social","sequencer",1,1,1,0.446,223,3,1000200003
"446",1,10002,"non-social","sequencer",1,1,1,0.309,224,3,1000200003
"447",1,10002,"non-social","sequencer",0,1,0,0.307,225,3,1000200003
"448",1,10002,"non-social","sequencer",1,0,0,0.253,226,3,1000200003
"449",1,10002,"non-social","sequencer",0,1,0,0.367,227,3,1000200003
"450",1,10002,"non-social","sequencer",1,0,0,0.275,228,3,1000200003
"451",1,10003,"non-social","learner",0,0,1,0.889,1,1,1000300101
"452",1,10003,"non-social","learner",0,0,1,0.498,2,1,1000300101
"453",1,10003,"non-social","learner",0,1,0,0.637,3,1,1000300101
"454",1,10003,"non-social","learner",1,1,1,0.366,4,1,1000300101
"455",1,10003,"non-social","learner",1,0,0,0.705,5,1,1000300101
"456",1,10003,"non-social","learner",0,1,0,0.392,6,1,1000300101
"457",1,10003,"non-social","learner",0,1,0,0.554,7,1,1000300101
"458",1,10003,"non-social","learner",0,1,0,0.404,8,1,1000300101
"459",1,10003,"non-social","learner",0,1,0,0.538,9,1,1000300101
"460",1,10003,"non-social","learner",1,1,1,0.474,10,1,1000300101
"461",1,10003,"non-social","learner",1,1,1,0.508,11,1,1000300101
"462",1,10003,"non-social","learner",1,0,0,1.001,12,1,1000300101
"463",1,10003,"non-social","learner",0,0,1,0.651,13,1,1000300101
"464",1,10003,"non-social","learner",0,1,0,0.808,14,1,1000300101
"465",1,10003,"non-social","learner",1,1,1,0.548,15,1,1000300101
"466",1,10003,"non-social","learner",1,1,1,0.578,16,1,1000300101
"467",1,10003,"non-social","learner",1,0,0,0.58,17,1,1000300101
"468",1,10003,"non-social","learner",0,0,1,0.623,18,1,1000300101
"469",1,10003,"non-social","learner",0,0,1,0.323,19,1,1000300101
"470",1,10003,"non-social","sequencer",1,1,1,0.412,20,1,1000300001
"471",1,10003,"non-social","sequencer",1,1,1,0.512,21,1,1000300001
"472",1,10003,"non-social","sequencer",0,1,0,1.053,22,1,1000300001
"473",1,10003,"non-social","sequencer",1,0,0,0.378,23,1,1000300001
"474",1,10003,"non-social","sequencer",0,0,1,0.603,24,1,1000300001
"475",1,10003,"non-social","sequencer",0,1,0,0.657,25,1,1000300001
"476",1,10003,"non-social","sequencer",1,0,0,0.837,26,1,1000300001
"477",1,10003,"non-social","sequencer",0,0,1,0.542,27,1,1000300001
"478",1,10003,"non-social","sequencer",0,1,0,1.029,28,1,1000300001
"479",1,10003,"non-social","sequencer",0,1,0,0.564,29,1,1000300001
"480",1,10003,"non-social","sequencer",1,1,1,0.5,30,1,1000300001
"481",1,10003,"non-social","sequencer",1,0,0,0.755,31,1,1000300001
"482",1,10003,"non-social","sequencer",0,0,1,0.734,32,1,1000300001
"483",1,10003,"non-social","sequencer",0,1,0,0.726,33,1,1000300001
"484",1,10003,"non-social","sequencer",1,0,0,0.83,34,1,1000300001
"485",1,10003,"non-social","sequencer",0,0,1,0.95,35,1,1000300001
"486",1,10003,"non-social","sequencer",1,1,1,0.903,36,1,1000300001
"487",1,10003,"non-social","sequencer",1,1,1,1.361,37,1,1000300001
"488",1,10003,"non-social","sequencer",1,1,1,0.776,38,1,1000300001
"489",1,10003,"non-social","learner",0,0,1,0.763,39,1,1000300101
"490",1,10003,"non-social","learner",0,1,0,0.765,40,1,1000300101
"491",1,10003,"non-social","learner",1,1,1,0.616,41,1,1000300101
"492",1,10003,"non-social","learner",1,0,0,0.695,42,1,1000300101
"493",1,10003,"non-social","learner",0,0,1,0.504,43,1,1000300101
"494",1,10003,"non-social","learner",0,0,1,0.613,44,1,1000300101
"495",1,10003,"non-social","learner",0,1,0,0.824,45,1,1000300101
"496",1,10003,"non-social","learner",1,1,1,0.752,46,1,1000300101
"497",1,10003,"non-social","learner",1,1,1,0.631,47,1,1000300101
"498",1,10003,"non-social","learner",1,0,0,0.454,48,1,1000300101
"499",1,10003,"non-social","learner",0,0,1,0.393,49,1,1000300101
"500",1,10003,"non-social","learner",0,0,1,0.569,50,1,1000300101
"501",1,10003,"non-social","learner",0,1,0,0.713,51,1,1000300101
"502",1,10003,"non-social","learner",1,1,1,0.421,52,1,1000300101
"503",1,10003,"non-social","learner",1,1,1,0.932,53,1,1000300101
"504",1,10003,"non-social","learner",0,1,0,0.507,54,1,1000300101
"505",1,10003,"non-social","learner",1,0,0,0.38,55,1,1000300101
"506",1,10003,"non-social","learner",0,0,1,0.373,56,1,1000300101
"507",1,10003,"non-social","learner",0,1,0,0.641,57,1,1000300101
"508",1,10003,"non-social","sequencer",1,1,1,0.375,58,1,1000300001
"509",1,10003,"non-social","sequencer",1,1,1,0.584,59,1,1000300001
"510",1,10003,"non-social","sequencer",0,0,1,0.66,60,1,1000300001
"511",1,10003,"non-social","sequencer",0,0,1,0.693,61,1,1000300001
"512",1,10003,"non-social","sequencer",0,0,1,0.468,62,1,1000300001
"513",1,10003,"non-social","sequencer",0,1,0,0.403,63,1,1000300001
"514",1,10003,"non-social","sequencer",1,1,1,1.013,64,1,1000300001
"515",1,10003,"non-social","sequencer",1,0,0,0.534,65,1,1000300001
"516",1,10003,"non-social","sequencer",0,1,0,0.508,66,1,1000300001
"517",1,10003,"non-social","sequencer",0,1,0,0.691,67,1,1000300001
"518",1,10003,"non-social","sequencer",1,0,0,0.559,68,1,1000300001
"519",1,10003,"non-social","sequencer",0,0,1,1.301,69,1,1000300001
"520",1,10003,"non-social","sequencer",0,0,1,0.684,70,1,1000300001
"521",1,10003,"non-social","sequencer",0,1,0,0.59,71,1,1000300001
"522",1,10003,"non-social","sequencer",1,1,1,0.552,72,1,1000300001
"523",1,10003,"non-social","sequencer",1,0,0,1.041,73,1,1000300001
"524",1,10003,"non-social","sequencer",0,0,1,1.336,74,1,1000300001
"525",1,10003,"non-social","sequencer",0,1,0,0.607,75,1,1000300001
"526",1,10003,"non-social","sequencer",1,0,0,0.656,76,1,1000300001
"527",1,10003,"non-social","learner",0,0,1,1.386,77,2,1000300102
"528",1,10003,"non-social","learner",0,1,0,0.476,78,2,1000300102
"529",1,10003,"non-social","learner",1,1,1,0.479,79,2,1000300102
"530",1,10003,"non-social","learner",1,1,1,0.731,80,2,1000300102
"531",1,10003,"non-social","learner",1,0,0,0.475,81,2,1000300102
"532",1,10003,"non-social","learner",0,0,1,0.804,82,2,1000300102
"533",1,10003,"non-social","learner",0,1,0,0.845,83,2,1000300102
"534",1,10003,"non-social","learner",1,1,1,0.335,84,2,1000300102
"535",1,10003,"non-social","learner",0,0,1,0.317,85,2,1000300102
"536",1,10003,"non-social","learner",1,1,1,0.336,86,2,1000300102
"537",1,10003,"non-social","learner",0,0,1,0.449,87,2,1000300102
"538",1,10003,"non-social","learner",1,1,1,0.456,88,2,1000300102
"539",1,10003,"non-social","learner",0,0,1,0.633,89,2,1000300102
"540",1,10003,"non-social","learner",1,1,1,0.479,90,2,1000300102
"541",1,10003,"non-social","learner",0,0,1,0.724,91,2,1000300102
"542",1,10003,"non-social","learner",1,1,1,0.869,92,2,1000300102
"543",1,10003,"non-social","learner",0,1,0,0.754,93,2,1000300102
"544",1,10003,"non-social","learner",0,1,0,0.453,94,2,1000300102
"545",1,10003,"non-social","learner",1,0,0,-1.601,95,2,1000300102
"546",1,10003,"non-social","sequencer",1,0,0,0.732,96,2,1000300002
"547",1,10003,"non-social","sequencer",1,1,1,0.349,97,2,1000300002
"548",1,10003,"non-social","sequencer",0,1,0,0.559,98,2,1000300002
"549",1,10003,"non-social","sequencer",0,0,1,0.519,99,2,1000300002
"550",1,10003,"non-social","sequencer",0,0,1,0.392,100,2,1000300002
"551",1,10003,"non-social","sequencer",1,1,1,0.527,101,2,1000300002
"552",1,10003,"non-social","sequencer",1,1,1,0.326,102,2,1000300002
"553",1,10003,"non-social","sequencer",0,0,1,0.429,103,2,1000300002
"554",1,10003,"non-social","sequencer",0,0,1,0.654,104,2,1000300002
"555",1,10003,"non-social","sequencer",1,1,1,0.753,105,2,1000300002
"556",1,10003,"non-social","sequencer",1,1,1,0.814,106,2,1000300002
"557",1,10003,"non-social","sequencer",0,0,1,0.559,107,2,1000300002
"558",1,10003,"non-social","sequencer",0,0,1,0.71,108,2,1000300002
"559",1,10003,"non-social","sequencer",1,1,1,0.629,109,2,1000300002
"560",1,10003,"non-social","sequencer",1,1,1,0.816,110,2,1000300002
"561",1,10003,"non-social","sequencer",0,0,1,0.471,111,2,1000300002
"562",1,10003,"non-social","sequencer",0,0,1,0.703,112,2,1000300002
"563",1,10003,"non-social","sequencer",1,1,1,0.596,113,2,1000300002
"564",1,10003,"non-social","sequencer",1,1,1,0.99,114,2,1000300002
"565",1,10003,"non-social","learner",1,0,0,0.331,115,2,1000300102
"566",1,10003,"non-social","learner",1,0,0,0.385,116,2,1000300102
"567",1,10003,"non-social","learner",0,0,1,0.519,117,2,1000300102
"568",1,10003,"non-social","learner",1,0,0,0.392,118,2,1000300102
"569",1,10003,"non-social","learner",1,0,0,0.469,119,2,1000300102
"570",1,10003,"non-social","learner",1,0,0,0.418,120,2,1000300102
"571",1,10003,"non-social","learner",0,0,1,0.516,121,2,1000300102
"572",1,10003,"non-social","learner",0,0,1,0.509,122,2,1000300102
"573",1,10003,"non-social","learner",0,0,1,1.223,123,2,1000300102
"574",1,10003,"non-social","learner",0,1,0,0.702,124,2,1000300102
"575",1,10003,"non-social","learner",1,1,1,0.831,125,2,1000300102
"576",1,10003,"non-social","learner",1,1,1,0.737,126,2,1000300102
"577",1,10003,"non-social","learner",1,0,0,0.604,127,2,1000300102
"578",1,10003,"non-social","learner",0,0,1,0.614,128,2,1000300102
"579",1,10003,"non-social","learner",0,1,0,0.698,129,2,1000300102
"580",1,10003,"non-social","learner",1,1,1,0.606,130,2,1000300102
"581",1,10003,"non-social","learner",0,1,0,0.427,131,2,1000300102
"582",1,10003,"non-social","learner",1,0,0,0.288,132,2,1000300102
"583",1,10003,"non-social","learner",1,0,0,0.317,133,2,1000300102
"584",1,10003,"non-social","sequencer",0,0,1,0.888,134,2,1000300002
"585",1,10003,"non-social","sequencer",0,1,0,1.318,135,2,1000300002
"586",1,10003,"non-social","sequencer",0,1,0,0.727,136,2,1000300002
"587",1,10003,"non-social","sequencer",1,0,0,0.364,137,2,1000300002
"588",1,10003,"non-social","sequencer",1,0,0,0.736,138,2,1000300002
"589",1,10003,"non-social","sequencer",0,1,0,0.704,139,2,1000300002
"590",1,10003,"non-social","sequencer",0,1,0,0.399,140,2,1000300002
"591",1,10003,"non-social","sequencer",0,0,1,0.406,141,2,1000300002
"592",1,10003,"non-social","sequencer",0,0,1,0.308,142,2,1000300002
"593",1,10003,"non-social","sequencer",0,1,0,0.77,143,2,1000300002
"594",1,10003,"non-social","sequencer",1,1,1,0.741,144,2,1000300002
"595",1,10003,"non-social","sequencer",1,0,0,0.799,145,2,1000300002
"596",1,10003,"non-social","sequencer",0,0,1,1.2,146,2,1000300002
"597",1,10003,"non-social","sequencer",1,1,1,0.466,147,2,1000300002
"598",1,10003,"non-social","sequencer",0,1,0,0.348,148,2,1000300002
"599",1,10003,"non-social","sequencer",1,0,0,0.643,149,2,1000300002
"600",1,10003,"non-social","sequencer",1,0,0,0.396,150,2,1000300002
"601",1,10003,"non-social","sequencer",0,0,1,0.445,151,2,1000300002
"602",1,10003,"non-social","sequencer",1,1,1,0.514,152,2,1000300002
"603",1,10003,"non-social","learner",0,1,0,0.429,153,3,1000300103
"604",1,10003,"non-social","learner",1,1,1,0.386,154,3,1000300103
"605",1,10003,"non-social","learner",1,0,0,0.359,155,3,1000300103
"606",1,10003,"non-social","learner",0,0,1,0.605,156,3,1000300103
"607",1,10003,"non-social","learner",0,1,0,0.463,157,3,1000300103
"608",1,10003,"non-social","learner",0,1,0,0.446,158,3,1000300103
"609",1,10003,"non-social","learner",0,1,0,0.446,159,3,1000300103
"610",1,10003,"non-social","learner",0,1,0,0.273,160,3,1000300103
"611",1,10003,"non-social","learner",1,1,1,0.499,161,3,1000300103
"612",1,10003,"non-social","learner",1,1,1,0.428,162,3,1000300103
"613",1,10003,"non-social","learner",1,0,0,0.478,163,3,1000300103
"614",1,10003,"non-social","learner",0,0,1,0.669,164,3,1000300103
"615",1,10003,"non-social","learner",0,1,0,0.579,165,3,1000300103
"616",1,10003,"non-social","learner",1,1,1,0.242,166,3,1000300103
"617",1,10003,"non-social","learner",1,1,1,0.552,167,3,1000300103
"618",1,10003,"non-social","learner",1,1,1,0.626,168,3,1000300103
"619",1,10003,"non-social","learner",1,0,0,1.084,169,3,1000300103
"620",1,10003,"non-social","learner",0,0,1,0.393,170,3,1000300103
"621",1,10003,"non-social","learner",0,0,1,0.402,171,3,1000300103
"622",1,10003,"non-social","sequencer",0,1,0,0.791,172,3,1000300003
"623",1,10003,"non-social","sequencer",1,0,0,0.476,173,3,1000300003
"624",1,10003,"non-social","sequencer",0,0,1,0.397,174,3,1000300003
"625",1,10003,"non-social","sequencer",0,1,0,0.471,175,3,1000300003
"626",1,10003,"non-social","sequencer",1,1,1,0.569,176,3,1000300003
"627",1,10003,"non-social","sequencer",0,0,1,0.478,177,3,1000300003
"628",1,10003,"non-social","sequencer",1,0,0,0.418,178,3,1000300003
"629",1,10003,"non-social","sequencer",0,1,0,0.496,179,3,1000300003
"630",1,10003,"non-social","sequencer",0,1,0,0.479,180,3,1000300003
"631",1,10003,"non-social","sequencer",1,0,0,0.529,181,3,1000300003
"632",1,10003,"non-social","sequencer",0,1,0,0.345,182,3,1000300003
"633",1,10003,"non-social","sequencer",0,1,0,0.306,183,3,1000300003
"634",1,10003,"non-social","sequencer",1,1,1,0.676,184,3,1000300003
"635",1,10003,"non-social","sequencer",1,0,0,0.388,185,3,1000300003
"636",1,10003,"non-social","sequencer",0,0,1,0.627,186,3,1000300003
"637",1,10003,"non-social","sequencer",0,1,0,0.485,187,3,1000300003
"638",1,10003,"non-social","sequencer",1,1,1,0.905,188,3,1000300003
"639",1,10003,"non-social","sequencer",0,0,1,0.369,189,3,1000300003
"640",1,10003,"non-social","sequencer",1,1,1,0.423,190,3,1000300003
"641",1,10003,"non-social","learner",0,1,0,0.565,191,3,1000300103
"642",1,10003,"non-social","learner",1,1,1,0.472,192,3,1000300103
"643",1,10003,"non-social","learner",0,0,1,0.418,193,3,1000300103
"644",1,10003,"non-social","learner",1,1,1,0.49,194,3,1000300103
"645",1,10003,"non-social","learner",0,0,1,0.455,195,3,1000300103
"646",1,10003,"non-social","learner",1,1,1,0.453,196,3,1000300103
"647",1,10003,"non-social","learner",0,0,1,0.351,197,3,1000300103
"648",1,10003,"non-social","learner",1,1,1,0.692,198,3,1000300103
"649",1,10003,"non-social","learner",0,0,1,0.429,199,3,1000300103
"650",1,10003,"non-social","learner",1,1,1,1.005,200,3,1000300103
"651",1,10003,"non-social","learner",0,0,1,0.388,201,3,1000300103
"652",1,10003,"non-social","learner",1,1,1,0.623,202,3,1000300103
"653",1,10003,"non-social","learner",0,0,1,0.39,203,3,1000300103
"654",1,10003,"non-social","learner",1,1,1,0.549,204,3,1000300103
"655",1,10003,"non-social","learner",0,0,1,0.685,205,3,1000300103
"656",1,10003,"non-social","learner",1,1,1,0.492,206,3,1000300103
"657",1,10003,"non-social","learner",0,1,0,0.475,207,3,1000300103
"658",1,10003,"non-social","learner",1,1,1,0.413,208,3,1000300103
"659",1,10003,"non-social","learner",1,0,0,0.711,209,3,1000300103
"660",1,10003,"non-social","sequencer",0,1,0,0.87,210,3,1000300003
"661",1,10003,"non-social","sequencer",0,1,0,0.562,211,3,1000300003
"662",1,10003,"non-social","sequencer",1,0,0,0.719,212,3,1000300003
"663",1,10003,"non-social","sequencer",0,1,0,0.339,213,3,1000300003
"664",1,10003,"non-social","sequencer",1,0,0,0.409,214,3,1000300003
"665",1,10003,"non-social","sequencer",1,0,0,0.36,215,3,1000300003
"666",1,10003,"non-social","sequencer",1,1,1,0.411,216,3,1000300003
"667",1,10003,"non-social","sequencer",1,1,1,0.436,217,3,1000300003
"668",1,10003,"non-social","sequencer",1,1,1,0.586,218,3,1000300003
"669",1,10003,"non-social","sequencer",1,1,1,0.493,219,3,1000300003
"670",1,10003,"non-social","sequencer",1,0,0,0.377,220,3,1000300003
"671",1,10003,"non-social","sequencer",0,0,1,0.658,221,3,1000300003
"672",1,10003,"non-social","sequencer",0,1,0,0.478,222,3,1000300003
"673",1,10003,"non-social","sequencer",1,1,1,0.438,223,3,1000300003
"674",1,10003,"non-social","sequencer",1,1,1,0.493,224,3,1000300003
"675",1,10003,"non-social","sequencer",1,1,1,0.38,225,3,1000300003
"676",1,10003,"non-social","sequencer",1,0,0,0.524,226,3,1000300003
"677",1,10003,"non-social","sequencer",0,1,0,0.459,227,3,1000300003
"678",1,10003,"non-social","sequencer",0,0,1,0.438,228,3,1000300003
"679",1,10004,"non-social","learner",0,0,1,0.475,1,1,1000400101
"680",1,10004,"non-social","learner",0,0,1,0.778,2,1,1000400101
"681",1,10004,"non-social","learner",0,1,0,1.416,3,1,1000400101
"682",1,10004,"non-social","learner",1,1,1,0.667,4,1,1000400101
"683",1,10004,"non-social","learner",0,0,1,1.141,5,1,1000400101
"684",1,10004,"non-social","learner",0,1,0,1.325,6,1,1000400101
"685",1,10004,"non-social","learner",1,1,1,0.438,7,1,1000400101
"686",1,10004,"non-social","learner",1,0,0,1.34,8,1,1000400101
"687",1,10004,"non-social","learner",0,0,1,0.8,10,1,1000400101
"688",1,10004,"non-social","learner",1,1,1,0.658,11,1,1000400101
"689",1,10004,"non-social","learner",1,0,0,1.472,12,1,1000400101
"690",1,10004,"non-social","learner",1,0,0,0.425,13,1,1000400101
"691",1,10004,"non-social","learner",0,0,1,0.95,14,1,1000400101
"692",1,10004,"non-social","learner",0,0,1,0.637,15,1,1000400101
"693",1,10004,"non-social","learner",1,1,1,0.484,16,1,1000400101
"694",1,10004,"non-social","learner",0,0,1,0.977,17,1,1000400101
"695",1,10004,"non-social","learner",1,0,0,0.504,18,1,1000400101
"696",1,10004,"non-social","learner",1,0,0,1.164,19,1,1000400101
"697",1,10004,"non-social","sequencer",1,1,1,1.336,20,1,1000400001
"698",1,10004,"non-social","sequencer",0,1,0,1.032,21,1,1000400001
"699",1,10004,"non-social","sequencer",1,1,1,0.493,22,1,1000400001
"700",1,10004,"non-social","sequencer",0,0,1,0.605,23,1,1000400001
"701",1,10004,"non-social","sequencer",0,0,1,0.617,24,1,1000400001
"702",1,10004,"non-social","sequencer",0,1,0,0.765,25,1,1000400001
"703",1,10004,"non-social","sequencer",1,0,0,0.594,26,1,1000400001
"704",1,10004,"non-social","sequencer",0,0,1,0.497,27,1,1000400001
"705",1,10004,"non-social","sequencer",1,1,1,0.945,28,1,1000400001
"706",1,10004,"non-social","sequencer",1,1,1,0.735,29,1,1000400001
"707",1,10004,"non-social","sequencer",0,1,0,0.693,30,1,1000400001
"708",1,10004,"non-social","sequencer",1,0,0,0.765,31,1,1000400001
"709",1,10004,"non-social","sequencer",1,0,0,0.7,32,1,1000400001
"710",1,10004,"non-social","sequencer",0,1,0,1.563,33,1,1000400001
"711",1,10004,"non-social","sequencer",1,0,0,0.679,34,1,1000400001
"712",1,10004,"non-social","sequencer",1,0,0,0.666,35,1,1000400001
"713",1,10004,"non-social","sequencer",0,1,0,0.668,36,1,1000400001
"714",1,10004,"non-social","sequencer",1,1,1,1.774,37,1,1000400001
"715",1,10004,"non-social","sequencer",1,1,1,0.554,38,1,1000400001
"716",1,10004,"non-social","learner",0,0,1,0.935,39,1,1000400101
"717",1,10004,"non-social","learner",0,1,0,0.613,40,1,1000400101
"718",1,10004,"non-social","learner",1,1,1,0.433,41,1,1000400101
"719",1,10004,"non-social","learner",1,0,0,0.55,42,1,1000400101
"720",1,10004,"non-social","learner",1,0,0,0.507,43,1,1000400101
"721",1,10004,"non-social","learner",1,0,0,0.577,44,1,1000400101
"722",1,10004,"non-social","learner",1,0,0,0.485,45,1,1000400101
"723",1,10004,"non-social","learner",0,0,1,0.472,46,1,1000400101
"724",1,10004,"non-social","learner",0,1,0,0.634,47,1,1000400101
"725",1,10004,"non-social","learner",1,1,1,0.448,48,1,1000400101
"726",1,10004,"non-social","learner",1,1,1,1.324,49,1,1000400101
"727",1,10004,"non-social","learner",1,0,0,0.562,50,1,1000400101
"728",1,10004,"non-social","learner",0,1,0,0.637,51,1,1000400101
"729",1,10004,"non-social","learner",0,1,0,0.652,52,1,1000400101
"730",1,10004,"non-social","learner",0,1,0,1.866,53,1,1000400101
"731",1,10004,"non-social","learner",1,1,1,0.473,54,1,1000400101
"732",1,10004,"non-social","learner",0,0,1,0.466,55,1,1000400101
"733",1,10004,"non-social","learner",0,1,0,1.275,56,1,1000400101
"734",1,10004,"non-social","learner",1,1,1,0.82,57,1,1000400101
"735",1,10004,"non-social","sequencer",1,1,1,0.476,58,1,1000400001
"736",1,10004,"non-social","sequencer",0,1,0,0.569,59,1,1000400001
"737",1,10004,"non-social","sequencer",0,0,1,0.439,60,1,1000400001
"738",1,10004,"non-social","sequencer",0,0,1,0.344,61,1,1000400001
"739",1,10004,"non-social","sequencer",1,0,0,0.477,62,1,1000400001
"740",1,10004,"non-social","sequencer",1,1,1,0.474,63,1,1000400001
"741",1,10004,"non-social","sequencer",1,1,1,0.449,64,1,1000400001
"742",1,10004,"non-social","sequencer",1,0,0,0.418,65,1,1000400001
"743",1,10004,"non-social","sequencer",0,1,0,0.554,66,1,1000400001
"744",1,10004,"non-social","sequencer",0,1,0,0.431,67,1,1000400001
"745",1,10004,"non-social","sequencer",1,0,0,0.375,68,1,1000400001
"746",1,10004,"non-social","sequencer",0,0,1,0.336,69,1,1000400001
"747",1,10004,"non-social","sequencer",1,0,0,0.426,70,1,1000400001
"748",1,10004,"non-social","sequencer",1,1,1,0.286,71,1,1000400001
"749",1,10004,"non-social","sequencer",1,1,1,0.811,72,1,1000400001
"750",1,10004,"non-social","sequencer",0,0,1,0.574,73,1,1000400001
"751",1,10004,"non-social","sequencer",1,0,0,0.429,74,1,1000400001
"752",1,10004,"non-social","sequencer",0,1,0,0.45,75,1,1000400001
"753",1,10004,"non-social","sequencer",1,0,0,0.486,76,1,1000400001
"754",1,10004,"non-social","learner",0,0,1,0.603,77,2,1000400102
"755",1,10004,"non-social","learner",0,1,0,0.391,78,2,1000400102
"756",1,10004,"non-social","learner",1,1,1,0.605,79,2,1000400102
"757",1,10004,"non-social","learner",1,1,1,0.412,80,2,1000400102
"758",1,10004,"non-social","learner",0,0,1,0.947,81,2,1000400102
"759",1,10004,"non-social","learner",0,0,1,1.157,82,2,1000400102
"760",1,10004,"non-social","learner",0,1,0,1.233,83,2,1000400102
"761",1,10004,"non-social","learner",1,1,1,0.417,84,2,1000400102
"762",1,10004,"non-social","learner",0,1,0,0.743,85,2,1000400102
"763",1,10004,"non-social","learner",0,1,0,0.664,86,2,1000400102
"764",1,10004,"non-social","learner",1,1,1,0.696,87,2,1000400102
"765",1,10004,"non-social","learner",0,0,1,0.633,88,2,1000400102
"766",1,10004,"non-social","learner",1,1,1,0.478,89,2,1000400102
"767",1,10004,"non-social","learner",1,0,0,0.608,90,2,1000400102
"768",1,10004,"non-social","learner",0,0,1,1.041,91,2,1000400102
"769",1,10004,"non-social","learner",1,1,1,0.705,92,2,1000400102
"770",1,10004,"non-social","learner",0,1,0,1.11,93,2,1000400102
"771",1,10004,"non-social","learner",1,1,1,1.649,94,2,1000400102
"772",1,10004,"non-social","learner",1,0,0,1.031,95,2,1000400102
"773",1,10004,"non-social","sequencer",0,0,1,0.622,96,2,1000400002
"774",1,10004,"non-social","sequencer",0,1,0,0.864,97,2,1000400002
"775",1,10004,"non-social","sequencer",1,1,1,1.396,98,2,1000400002
"776",1,10004,"non-social","sequencer",1,0,0,0.886,99,2,1000400002
"777",1,10004,"non-social","sequencer",1,0,0,0.451,100,2,1000400002
"778",1,10004,"non-social","sequencer",1,1,1,0.507,101,2,1000400002
"779",1,10004,"non-social","sequencer",0,1,0,0.445,102,2,1000400002
"780",1,10004,"non-social","sequencer",1,0,0,0.571,103,2,1000400002
"781",1,10004,"non-social","sequencer",1,0,0,0.377,104,2,1000400002
"782",1,10004,"non-social","sequencer",0,1,0,0.501,105,2,1000400002
"783",1,10004,"non-social","sequencer",1,1,1,0.373,106,2,1000400002
"784",1,10004,"non-social","sequencer",1,0,0,0.439,107,2,1000400002
"785",1,10004,"non-social","sequencer",0,0,1,0.763,108,2,1000400002
"786",1,10004,"non-social","sequencer",0,1,0,0.727,109,2,1000400002
"787",1,10004,"non-social","sequencer",0,1,0,0.832,110,2,1000400002
"788",1,10004,"non-social","sequencer",1,0,0,0.624,111,2,1000400002
"789",1,10004,"non-social","sequencer",1,0,0,0.345,112,2,1000400002
"790",1,10004,"non-social","sequencer",1,1,1,0.97,113,2,1000400002
"791",1,10004,"non-social","sequencer",1,1,1,0.429,114,2,1000400002
"792",1,10004,"non-social","learner",0,0,1,0.752,115,2,1000400102
"793",1,10004,"non-social","learner",1,1,1,0.551,116,2,1000400102
"794",1,10004,"non-social","learner",1,0,0,0.33,117,2,1000400102
"795",1,10004,"non-social","learner",1,0,0,0.36,118,2,1000400102
"796",1,10004,"non-social","learner",1,0,0,0.658,119,2,1000400102
"797",1,10004,"non-social","learner",1,0,0,0.504,120,2,1000400102
"798",1,10004,"non-social","learner",1,0,0,0.326,121,2,1000400102
"799",1,10004,"non-social","learner",0,0,1,0.384,122,2,1000400102
"800",1,10004,"non-social","learner",1,0,0,0.433,123,2,1000400102
"801",1,10004,"non-social","learner",0,0,1,1.687,124,2,1000400102
"802",1,10004,"non-social","learner",0,1,0,0.347,125,2,1000400102
"803",1,10004,"non-social","learner",1,1,1,0.413,126,2,1000400102
"804",1,10004,"non-social","learner",1,1,1,0.414,127,2,1000400102
"805",1,10004,"non-social","learner",1,0,0,1.171,128,2,1000400102
"806",1,10004,"non-social","learner",0,0,1,0.472,129,2,1000400102
"807",1,10004,"non-social","learner",0,0,1,0.715,130,2,1000400102
"808",1,10004,"non-social","learner",1,1,1,1.022,131,2,1000400102
"809",1,10004,"non-social","learner",1,0,0,0.671,132,2,1000400102
"810",1,10004,"non-social","learner",1,0,0,0.485,133,2,1000400102
"811",1,10004,"non-social","sequencer",1,0,0,0.267,134,2,1000400002
"812",1,10004,"non-social","sequencer",0,1,0,0.363,135,2,1000400002
"813",1,10004,"non-social","sequencer",0,1,0,0.448,136,2,1000400002
"814",1,10004,"non-social","sequencer",1,0,0,0.353,137,2,1000400002
"815",1,10004,"non-social","sequencer",0,0,1,0.403,138,2,1000400002
"816",1,10004,"non-social","sequencer",1,1,1,0.399,139,2,1000400002
"817",1,10004,"non-social","sequencer",0,1,0,0.555,140,2,1000400002
"818",1,10004,"non-social","sequencer",1,0,0,0.278,141,2,1000400002
"819",1,10004,"non-social","sequencer",1,0,0,0.53,142,2,1000400002
"820",1,10004,"non-social","sequencer",0,1,0,0.714,143,2,1000400002
"821",1,10004,"non-social","sequencer",1,1,1,0.474,144,2,1000400002
"822",1,10004,"non-social","sequencer",1,0,0,0.582,145,2,1000400002
"823",1,10004,"non-social","sequencer",0,0,1,0.44,146,2,1000400002
"824",1,10004,"non-social","sequencer",1,1,1,0.339,147,2,1000400002
"825",1,10004,"non-social","sequencer",0,1,0,0.939,148,2,1000400002
"826",1,10004,"non-social","sequencer",0,0,1,1.246,149,2,1000400002
"827",1,10004,"non-social","sequencer",0,0,1,0.398,150,2,1000400002
"828",1,10004,"non-social","sequencer",1,0,0,0.533,151,2,1000400002
"829",1,10004,"non-social","sequencer",1,1,1,0.409,152,2,1000400002
"830",1,10004,"non-social","learner",0,1,0,0.407,153,3,1000400103
"831",1,10004,"non-social","learner",1,1,1,0.309,154,3,1000400103
"832",1,10004,"non-social","learner",0,0,1,0.546,155,3,1000400103
"833",1,10004,"non-social","learner",0,1,0,0.328,156,3,1000400103
"834",1,10004,"non-social","learner",1,1,1,0.556,157,3,1000400103
"835",1,10004,"non-social","learner",1,0,0,0.417,158,3,1000400103
"836",1,10004,"non-social","learner",0,0,1,0.463,159,3,1000400103
"837",1,10004,"non-social","learner",1,1,1,0.481,160,3,1000400103
"838",1,10004,"non-social","learner",0,0,1,1.232,161,3,1000400103
"839",1,10004,"non-social","learner",1,1,1,0.571,162,3,1000400103
"840",1,10004,"non-social","learner",1,0,0,0.5,163,3,1000400103
"841",1,10004,"non-social","learner",1,0,0,0.395,164,3,1000400103
"842",1,10004,"non-social","learner",0,0,1,0.551,165,3,1000400103
"843",1,10004,"non-social","learner",1,0,0,0.301,166,3,1000400103
"844",1,10004,"non-social","learner",0,1,0,0.455,167,3,1000400103
"845",1,10004,"non-social","learner",1,1,1,0.377,168,3,1000400103
"846",1,10004,"non-social","learner",1,0,0,0.628,169,3,1000400103
"847",1,10004,"non-social","learner",0,0,1,0.444,170,3,1000400103
"848",1,10004,"non-social","learner",0,0,1,0.701,171,3,1000400103
"849",1,10004,"non-social","sequencer",1,1,1,1.324,172,3,1000400003
"850",1,10004,"non-social","sequencer",1,0,0,0.895,173,3,1000400003
"851",1,10004,"non-social","sequencer",1,0,0,0.323,174,3,1000400003
"852",1,10004,"non-social","sequencer",0,1,0,0.367,175,3,1000400003
"853",1,10004,"non-social","sequencer",1,1,1,0.314,176,3,1000400003
"854",1,10004,"non-social","sequencer",1,0,0,0.374,177,3,1000400003
"855",1,10004,"non-social","sequencer",0,0,1,0.42,178,3,1000400003
"856",1,10004,"non-social","sequencer",0,1,0,0.511,179,3,1000400003
"857",1,10004,"non-social","sequencer",1,1,1,0.362,180,3,1000400003
"858",1,10004,"non-social","sequencer",1,0,0,0.343,181,3,1000400003
"859",1,10004,"non-social","sequencer",0,1,0,0.625,182,3,1000400003
"860",1,10004,"non-social","sequencer",1,1,1,0.449,183,3,1000400003
"861",1,10004,"non-social","sequencer",0,1,0,0.658,184,3,1000400003
"862",1,10004,"non-social","sequencer",0,0,1,0.469,185,3,1000400003
"863",1,10004,"non-social","sequencer",1,0,0,0.44,186,3,1000400003
"864",1,10004,"non-social","sequencer",1,1,1,0.492,187,3,1000400003
"865",1,10004,"non-social","sequencer",0,1,0,1.072,188,3,1000400003
"866",1,10004,"non-social","sequencer",1,0,0,0.68,189,3,1000400003
"867",1,10004,"non-social","sequencer",1,1,1,0.399,190,3,1000400003
"868",1,10004,"non-social","learner",0,1,0,0.545,191,3,1000400103
"869",1,10004,"non-social","learner",1,1,1,0.381,192,3,1000400103
"870",1,10004,"non-social","learner",1,0,0,0.341,193,3,1000400103
"871",1,10004,"non-social","learner",0,1,0,0.438,194,3,1000400103
"872",1,10004,"non-social","learner",1,1,1,0.331,195,3,1000400103
"873",1,10004,"non-social","learner",0,0,1,0.377,196,3,1000400103
"874",1,10004,"non-social","learner",0,0,1,0.476,197,3,1000400103
"875",1,10004,"non-social","learner",1,1,1,0.312,198,3,1000400103
"876",1,10004,"non-social","learner",1,0,0,0.638,199,3,1000400103
"877",1,10004,"non-social","learner",0,0,1,0.457,200,3,1000400103
"878",1,10004,"non-social","learner",0,1,0,0.398,201,3,1000400103
"879",1,10004,"non-social","learner",1,1,1,0.525,202,3,1000400103
"880",1,10004,"non-social","learner",0,0,1,0.971,203,3,1000400103
"881",1,10004,"non-social","learner",0,1,0,0.409,204,3,1000400103
"882",1,10004,"non-social","learner",1,1,1,0.341,205,3,1000400103
"883",1,10004,"non-social","learner",0,0,1,0.551,206,3,1000400103
"884",1,10004,"non-social","learner",0,1,0,0.649,207,3,1000400103
"885",1,10004,"non-social","learner",1,1,1,0.62,208,3,1000400103
"886",1,10004,"non-social","learner",1,0,0,0.55,209,3,1000400103
"887",1,10004,"non-social","sequencer",0,1,0,0.487,210,3,1000400003
"888",1,10004,"non-social","sequencer",0,1,0,0.361,211,3,1000400003
"889",1,10004,"non-social","sequencer",1,0,0,0.625,212,3,1000400003
"890",1,10004,"non-social","sequencer",0,0,1,0.256,215,3,1000400003
"891",1,10004,"non-social","sequencer",1,1,1,0.464,216,3,1000400003
"892",1,10004,"non-social","sequencer",1,1,1,0.347,217,3,1000400003
"893",1,10004,"non-social","sequencer",0,1,0,0.571,218,3,1000400003
"894",1,10004,"non-social","sequencer",0,1,0,0.569,219,3,1000400003
"895",1,10004,"non-social","sequencer",1,0,0,0.389,220,3,1000400003
"896",1,10004,"non-social","sequencer",0,0,1,0.586,221,3,1000400003
"897",1,10004,"non-social","sequencer",1,1,1,0.389,222,3,1000400003
"898",1,10004,"non-social","sequencer",1,1,1,0.496,223,3,1000400003
"899",1,10004,"non-social","sequencer",0,1,0,0.417,224,3,1000400003
"900",1,10004,"non-social","sequencer",0,1,0,0.29,225,3,1000400003
"901",1,10004,"non-social","sequencer",1,0,0,0.368,226,3,1000400003
"902",1,10004,"non-social","sequencer",1,1,1,0.545,227,3,1000400003
"903",1,10004,"non-social","sequencer",0,0,1,0.307,228,3,1000400003
"904",1,10006,"non-social","learner",1,0,0,0.921,1,1,1000600101
"905",1,10006,"non-social","learner",1,0,0,0.675,2,1,1000600101
"906",1,10006,"non-social","learner",1,0,0,1.076,3,1,1000600101
"907",1,10006,"non-social","learner",0,0,1,0.748,4,1,1000600101
"908",1,10006,"non-social","learner",0,0,1,1.352,5,1,1000600101
"909",1,10006,"non-social","learner",0,1,0,0.741,6,1,1000600101
"910",1,10006,"non-social","learner",1,1,1,0.654,7,1,1000600101
"911",1,10006,"non-social","learner",1,0,0,1.18,8,1,1000600101
"912",1,10006,"non-social","learner",0,0,1,0.964,9,1,1000600101
"913",1,10006,"non-social","learner",0,0,1,0.846,10,1,1000600101
"914",1,10006,"non-social","learner",0,1,0,0.506,11,1,1000600101
"915",1,10006,"non-social","learner",1,0,0,1.517,12,1,1000600101
"916",1,10006,"non-social","learner",0,0,1,1.179,13,1,1000600101
"917",1,10006,"non-social","learner",1,1,1,0.377,14,1,1000600101
"918",1,10006,"non-social","learner",1,0,0,0.714,15,1,1000600101
"919",1,10006,"non-social","learner",0,0,1,1.08,16,1,1000600101
"920",1,10006,"non-social","learner",0,1,0,0.424,17,1,1000600101
"921",1,10006,"non-social","learner",1,0,0,1.45,18,1,1000600101
"922",1,10006,"non-social","learner",0,0,1,0.509,19,1,1000600101
"923",1,10006,"non-social","sequencer",0,1,0,0.528,20,1,1000600001
"924",1,10006,"non-social","sequencer",1,1,1,1.1,21,1,1000600001
"925",1,10006,"non-social","sequencer",0,1,0,0.494,22,1,1000600001
"926",1,10006,"non-social","sequencer",0,0,1,1.23,23,1,1000600001
"927",1,10006,"non-social","sequencer",0,0,1,1.404,24,1,1000600001
"928",1,10006,"non-social","sequencer",0,1,0,1.439,25,1,1000600001
"929",1,10006,"non-social","sequencer",1,0,0,0.866,26,1,1000600001
"930",1,10006,"non-social","sequencer",1,0,0,1.186,27,1,1000600001
"931",1,10006,"non-social","sequencer",0,1,0,0.602,28,1,1000600001
"932",1,10006,"non-social","sequencer",1,1,1,0.461,29,1,1000600001
"933",1,10006,"non-social","sequencer",1,0,0,0.72,31,1,1000600001
"934",1,10006,"non-social","sequencer",0,0,1,1.75,32,1,1000600001
"935",1,10006,"non-social","sequencer",0,1,0,0.42,33,1,1000600001
"936",1,10006,"non-social","sequencer",1,0,0,0.672,34,1,1000600001
"937",1,10006,"non-social","sequencer",1,0,0,0.895,35,1,1000600001
"938",1,10006,"non-social","sequencer",1,1,1,0.647,37,1,1000600001
"939",1,10006,"non-social","sequencer",1,1,1,0.877,38,1,1000600001
"940",1,10006,"non-social","learner",0,0,1,1.015,39,1,1000600101
"941",1,10006,"non-social","learner",0,1,0,0.403,40,1,1000600101
"942",1,10006,"non-social","learner",1,1,1,0.489,41,1,1000600101
"943",1,10006,"non-social","learner",1,0,0,0.851,42,1,1000600101
"944",1,10006,"non-social","learner",0,0,1,0.639,44,1,1000600101
"945",1,10006,"non-social","learner",0,0,1,1.402,45,1,1000600101
"946",1,10006,"non-social","learner",0,1,0,0.448,46,1,1000600101
"947",1,10006,"non-social","learner",1,1,1,1.345,47,1,1000600101
"948",1,10006,"non-social","learner",1,0,0,0.968,48,1,1000600101
"949",1,10006,"non-social","learner",0,0,1,0.485,49,1,1000600101
"950",1,10006,"non-social","learner",1,0,0,0.353,50,1,1000600101
"951",1,10006,"non-social","learner",1,1,1,0.38,51,1,1000600101
"952",1,10006,"non-social","learner",1,0,0,0.481,52,1,1000600101
"953",1,10006,"non-social","learner",0,0,1,0.521,53,1,1000600101
"954",1,10006,"non-social","learner",0,1,0,0.624,54,1,1000600101
"955",1,10006,"non-social","learner",1,1,1,0.651,55,1,1000600101
"956",1,10006,"non-social","learner",0,0,1,0.458,56,1,1000600101
"957",1,10006,"non-social","learner",0,1,0,0.401,57,1,1000600101
"958",1,10006,"non-social","sequencer",1,1,1,0.609,58,1,1000600001
"959",1,10006,"non-social","sequencer",0,1,0,0.379,59,1,1000600001
"960",1,10006,"non-social","sequencer",0,0,1,0.509,60,1,1000600001
"961",1,10006,"non-social","sequencer",0,0,1,0.642,61,1,1000600001
"962",1,10006,"non-social","sequencer",1,0,0,0.37,62,1,1000600001
"963",1,10006,"non-social","sequencer",1,1,1,1.958,63,1,1000600001
"964",1,10006,"non-social","sequencer",1,1,1,0.44,64,1,1000600001
"965",1,10006,"non-social","sequencer",0,0,1,0.44,65,1,1000600001
"966",1,10006,"non-social","sequencer",0,1,0,0.438,66,1,1000600001
"967",1,10006,"non-social","sequencer",1,1,1,1.921,67,1,1000600001
"968",1,10006,"non-social","sequencer",0,0,1,0.664,68,1,1000600001
"969",1,10006,"non-social","sequencer",0,0,1,0.594,69,1,1000600001
"970",1,10006,"non-social","sequencer",0,0,1,0.48,70,1,1000600001
"971",1,10006,"non-social","sequencer",0,1,0,0.549,71,1,1000600001
"972",1,10006,"non-social","sequencer",1,1,1,0.473,72,1,1000600001
"973",1,10006,"non-social","sequencer",0,0,1,0.507,73,1,1000600001
"974",1,10006,"non-social","sequencer",1,0,0,0.431,74,1,1000600001
"975",1,10006,"non-social","sequencer",1,1,1,0.921,75,1,1000600001
"976",1,10006,"non-social","sequencer",1,0,0,1.171,76,1,1000600001
"977",1,10006,"non-social","learner",1,0,0,1.272,77,2,1000600102
"978",1,10006,"non-social","learner",0,1,0,1.286,78,2,1000600102
"979",1,10006,"non-social","learner",0,1,0,0.452,79,2,1000600102
"980",1,10006,"non-social","learner",0,1,0,0.556,80,2,1000600102
"981",1,10006,"non-social","learner",0,1,0,0.83,81,2,1000600102
"982",1,10006,"non-social","learner",0,1,0,0.553,82,2,1000600102
"983",1,10006,"non-social","learner",0,1,0,0.463,83,2,1000600102
"984",1,10006,"non-social","learner",1,1,1,0.781,84,2,1000600102
"985",1,10006,"non-social","learner",1,1,1,0.732,85,2,1000600102
"986",1,10006,"non-social","learner",1,0,0,0.536,86,2,1000600102
"987",1,10006,"non-social","learner",1,0,0,0.408,87,2,1000600102
"988",1,10006,"non-social","learner",0,0,1,0.419,88,2,1000600102
"989",1,10006,"non-social","learner",0,1,0,0.441,89,2,1000600102
"990",1,10006,"non-social","learner",1,1,1,0.378,90,2,1000600102
"991",1,10006,"non-social","learner",1,0,0,0.388,91,2,1000600102
"992",1,10006,"non-social","learner",0,0,1,0.477,92,2,1000600102
"993",1,10006,"non-social","learner",0,1,0,0.63,93,2,1000600102
"994",1,10006,"non-social","learner",1,1,1,0.549,94,2,1000600102
"995",1,10006,"non-social","learner",1,0,0,0.45,95,2,1000600102
"996",1,10006,"non-social","sequencer",1,0,0,0.611,96,2,1000600002
"997",1,10006,"non-social","sequencer",1,1,1,0.79,97,2,1000600002
"998",1,10006,"non-social","sequencer",1,1,1,1.198,98,2,1000600002
"999",1,10006,"non-social","sequencer",1,0,0,0.555,99,2,1000600002
"1000",1,10006,"non-social","sequencer",1,0,0,0.682,100,2,1000600002
"1001",1,10006,"non-social","sequencer",1,1,1,0.513,101,2,1000600002
"1002",1,10006,"non-social","sequencer",1,1,1,1.203,102,2,1000600002
"1003",1,10006,"non-social","sequencer",0,0,1,0.388,103,2,1000600002
"1004",1,10006,"non-social","sequencer",0,0,1,0.508,104,2,1000600002
"1005",1,10006,"non-social","sequencer",1,1,1,0.426,105,2,1000600002
"1006",1,10006,"non-social","sequencer",1,1,1,0.414,106,2,1000600002
"1007",1,10006,"non-social","sequencer",0,0,1,0.605,107,2,1000600002
"1008",1,10006,"non-social","sequencer",0,0,1,0.404,108,2,1000600002
"1009",1,10006,"non-social","sequencer",1,1,1,0.563,109,2,1000600002
"1010",1,10006,"non-social","sequencer",1,1,1,0.456,110,2,1000600002
"1011",1,10006,"non-social","sequencer",0,0,1,1.132,111,2,1000600002
"1012",1,10006,"non-social","sequencer",0,0,1,0.462,112,2,1000600002
"1013",1,10006,"non-social","sequencer",1,1,1,0.612,113,2,1000600002
"1014",1,10006,"non-social","sequencer",1,1,1,0.577,114,2,1000600002
"1015",1,10006,"non-social","learner",0,0,1,0.654,115,2,1000600102
"1016",1,10006,"non-social","learner",1,1,1,0.497,116,2,1000600102
"1017",1,10006,"non-social","learner",1,0,0,0.416,117,2,1000600102
"1018",1,10006,"non-social","learner",1,0,0,1.508,118,2,1000600102
"1019",1,10006,"non-social","learner",0,0,1,0.495,119,2,1000600102
"1020",1,10006,"non-social","learner",1,1,1,0.568,120,2,1000600102
"1021",1,10006,"non-social","learner",1,0,0,0.293,122,2,1000600102
"1022",1,10006,"non-social","learner",0,0,1,0.443,123,2,1000600102
"1023",1,10006,"non-social","learner",0,1,0,0.538,124,2,1000600102
"1024",1,10006,"non-social","learner",1,1,1,0.371,126,2,1000600102
"1025",1,10006,"non-social","learner",1,1,1,0.497,127,2,1000600102
"1026",1,10006,"non-social","learner",0,0,1,0.601,128,2,1000600102
"1027",1,10006,"non-social","learner",0,1,0,0.456,129,2,1000600102
"1028",1,10006,"non-social","learner",1,1,1,0.44,130,2,1000600102
"1029",1,10006,"non-social","learner",1,1,1,0.48,131,2,1000600102
"1030",1,10006,"non-social","learner",1,0,0,0.501,132,2,1000600102
"1031",1,10006,"non-social","learner",0,0,1,0.497,133,2,1000600102
"1032",1,10006,"non-social","sequencer",0,0,1,0.512,134,2,1000600002
"1033",1,10006,"non-social","sequencer",0,1,0,0.434,135,2,1000600002
"1034",1,10006,"non-social","sequencer",1,1,1,0.503,136,2,1000600002
"1035",1,10006,"non-social","sequencer",0,0,1,0.466,137,2,1000600002
"1036",1,10006,"non-social","sequencer",0,0,1,0.437,138,2,1000600002
"1037",1,10006,"non-social","sequencer",1,1,1,0.547,139,2,1000600002
"1038",1,10006,"non-social","sequencer",1,1,1,0.51,140,2,1000600002
"1039",1,10006,"non-social","sequencer",0,0,1,1.929,141,2,1000600002
"1040",1,10006,"non-social","sequencer",0,0,1,0.394,142,2,1000600002
"1041",1,10006,"non-social","sequencer",1,1,1,0.387,143,2,1000600002
"1042",1,10006,"non-social","sequencer",1,1,1,0.434,144,2,1000600002
"1043",1,10006,"non-social","sequencer",0,0,1,0.631,145,2,1000600002
"1044",1,10006,"non-social","sequencer",0,0,1,0.463,146,2,1000600002
"1045",1,10006,"non-social","sequencer",1,1,1,0.333,147,2,1000600002
"1046",1,10006,"non-social","sequencer",1,1,1,0.466,148,2,1000600002
"1047",1,10006,"non-social","sequencer",0,0,1,0.48,149,2,1000600002
"1048",1,10006,"non-social","sequencer",0,0,1,0.504,150,2,1000600002
"1049",1,10006,"non-social","sequencer",1,0,0,0.427,151,2,1000600002
"1050",1,10006,"non-social","sequencer",1,1,1,0.36,152,2,1000600002
"1051",1,10006,"non-social","learner",1,1,1,0.906,153,3,1000600103
"1052",1,10006,"non-social","learner",1,0,0,0.901,154,3,1000600103
"1053",1,10006,"non-social","learner",1,0,0,0.659,155,3,1000600103
"1054",1,10006,"non-social","learner",1,0,0,0.565,156,3,1000600103
"1055",1,10006,"non-social","learner",0,0,1,0.398,157,3,1000600103
"1056",1,10006,"non-social","learner",1,0,0,1.466,158,3,1000600103
"1057",1,10006,"non-social","learner",0,0,1,0.518,159,3,1000600103
"1058",1,10006,"non-social","learner",0,1,0,0.451,160,3,1000600103
"1059",1,10006,"non-social","learner",1,0,0,0.41,161,3,1000600103
"1060",1,10006,"non-social","learner",0,1,0,0.558,162,3,1000600103
"1061",1,10006,"non-social","learner",0,1,0,0.631,163,3,1000600103
"1062",1,10006,"non-social","learner",1,1,1,1.219,164,3,1000600103
"1063",1,10006,"non-social","learner",1,1,1,0.747,165,3,1000600103
"1064",1,10006,"non-social","learner",1,0,0,0.444,166,3,1000600103
"1065",1,10006,"non-social","learner",0,0,1,1.396,167,3,1000600103
"1066",1,10006,"non-social","learner",0,1,0,0.551,168,3,1000600103
"1067",1,10006,"non-social","learner",0,1,0,0.532,169,3,1000600103
"1068",1,10006,"non-social","learner",1,1,1,0.555,170,3,1000600103
"1069",1,10006,"non-social","learner",1,0,0,0.649,171,3,1000600103
"1070",1,10006,"non-social","sequencer",1,1,1,0.441,172,3,1000600003
"1071",1,10006,"non-social","sequencer",1,0,0,0.483,173,3,1000600003
"1072",1,10006,"non-social","sequencer",0,0,1,0.885,174,3,1000600003
"1073",1,10006,"non-social","sequencer",1,1,1,1.074,175,3,1000600003
"1074",1,10006,"non-social","sequencer",1,1,1,0.576,176,3,1000600003
"1075",1,10006,"non-social","sequencer",1,0,0,1.225,177,3,1000600003
"1076",1,10006,"non-social","sequencer",0,0,1,1.029,178,3,1000600003
"1077",1,10006,"non-social","sequencer",1,1,1,0.57,179,3,1000600003
"1078",1,10006,"non-social","sequencer",1,1,1,0.445,180,3,1000600003
"1079",1,10006,"non-social","sequencer",0,0,1,0.505,181,3,1000600003
"1080",1,10006,"non-social","sequencer",0,1,0,0.98,182,3,1000600003
"1081",1,10006,"non-social","sequencer",1,1,1,0.384,183,3,1000600003
"1082",1,10006,"non-social","sequencer",0,1,0,0.457,184,3,1000600003
"1083",1,10006,"non-social","sequencer",0,0,1,1.394,185,3,1000600003
"1084",1,10006,"non-social","sequencer",1,0,0,0.478,186,3,1000600003
"1085",1,10006,"non-social","sequencer",1,1,1,0.38,187,3,1000600003
"1086",1,10006,"non-social","sequencer",1,1,1,0.743,188,3,1000600003
"1087",1,10006,"non-social","sequencer",0,0,1,0.4,189,3,1000600003
"1088",1,10006,"non-social","sequencer",0,1,0,0.364,190,3,1000600003
"1089",1,10006,"non-social","learner",1,1,1,0.521,191,3,1000600103
"1090",1,10006,"non-social","learner",0,0,1,1.012,192,3,1000600103
"1091",1,10006,"non-social","learner",0,1,0,0.496,193,3,1000600103
"1092",1,10006,"non-social","learner",1,1,1,0.567,194,3,1000600103
"1093",1,10006,"non-social","learner",1,1,1,1.341,195,3,1000600103
"1094",1,10006,"non-social","learner",1,0,0,0.374,196,3,1000600103
"1095",1,10006,"non-social","learner",0,0,1,0.407,197,3,1000600103
"1096",1,10006,"non-social","learner",1,1,1,0.385,198,3,1000600103
"1097",1,10006,"non-social","learner",1,0,0,0.724,199,3,1000600103
"1098",1,10006,"non-social","learner",0,0,1,0.613,200,3,1000600103
"1099",1,10006,"non-social","learner",1,0,0,0.417,201,3,1000600103
"1100",1,10006,"non-social","learner",0,0,1,0.435,202,3,1000600103
"1101",1,10006,"non-social","learner",1,1,1,0.765,203,3,1000600103
"1102",1,10006,"non-social","learner",0,0,1,0.434,204,3,1000600103
"1103",1,10006,"non-social","learner",0,1,0,0.447,205,3,1000600103
"1104",1,10006,"non-social","learner",0,1,0,0.36,206,3,1000600103
"1105",1,10006,"non-social","learner",0,1,0,0.38,207,3,1000600103
"1106",1,10006,"non-social","learner",0,1,0,0.56,208,3,1000600103
"1107",1,10006,"non-social","learner",1,1,1,0.408,209,3,1000600103
"1108",1,10006,"non-social","sequencer",0,1,0,0.514,210,3,1000600003
"1109",1,10006,"non-social","sequencer",0,1,0,0.512,211,3,1000600003
"1110",1,10006,"non-social","sequencer",0,0,1,0.453,212,3,1000600003
"1111",1,10006,"non-social","sequencer",0,1,0,0.487,213,3,1000600003
"1112",1,10006,"non-social","sequencer",1,0,0,0.709,214,3,1000600003
"1113",1,10006,"non-social","sequencer",0,0,1,0.671,215,3,1000600003
"1114",1,10006,"non-social","sequencer",1,1,1,0.396,216,3,1000600003
"1115",1,10006,"non-social","sequencer",1,1,1,0.371,217,3,1000600003
"1116",1,10006,"non-social","sequencer",0,1,0,0.481,218,3,1000600003
"1117",1,10006,"non-social","sequencer",0,1,0,0.469,219,3,1000600003
"1118",1,10006,"non-social","sequencer",0,0,1,0.384,220,3,1000600003
"1119",1,10006,"non-social","sequencer",0,0,1,0.744,221,3,1000600003
"1120",1,10006,"non-social","sequencer",1,1,1,0.45,222,3,1000600003
"1121",1,10006,"non-social","sequencer",1,1,1,0.637,223,3,1000600003
"1122",1,10006,"non-social","sequencer",0,1,0,0.42,224,3,1000600003
"1123",1,10006,"non-social","sequencer",1,1,1,0.53,225,3,1000600003
"1124",1,10006,"non-social","sequencer",0,0,1,0.359,226,3,1000600003
"1125",1,10006,"non-social","sequencer",0,1,0,0.41,227,3,1000600003
"1126",1,10006,"non-social","sequencer",0,0,1,0.44,228,3,1000600003
"1127",1,10007,"non-social","learner",0,0,1,1.454,1,1,1000700101
"1128",1,10007,"non-social","learner",0,0,1,0.576,2,1,1000700101
"1129",1,10007,"non-social","learner",0,1,0,0.439,3,1,1000700101
"1130",1,10007,"non-social","learner",0,1,0,0.405,4,1,1000700101
"1131",1,10007,"non-social","learner",0,1,0,0.815,5,1,1000700101
"1132",1,10007,"non-social","learner",0,1,0,0.711,6,1,1000700101
"1133",1,10007,"non-social","learner",0,1,0,0.734,7,1,1000700101
"1134",1,10007,"non-social","learner",1,1,1,0.392,8,1,1000700101
"1135",1,10007,"non-social","learner",1,0,0,0.478,9,1,1000700101
"1136",1,10007,"non-social","learner",0,0,1,0.347,10,1,1000700101
"1137",1,10007,"non-social","learner",1,1,1,0.317,11,1,1000700101
"1138",1,10007,"non-social","learner",1,0,0,0.451,12,1,1000700101
"1139",1,10007,"non-social","learner",1,0,0,0.56,13,1,1000700101
"1140",1,10007,"non-social","learner",1,0,0,1.424,14,1,1000700101
"1141",1,10007,"non-social","learner",0,0,1,0.365,15,1,1000700101
"1142",1,10007,"non-social","learner",0,1,0,0.465,16,1,1000700101
"1143",1,10007,"non-social","learner",1,1,1,0.389,17,1,1000700101
"1144",1,10007,"non-social","learner",1,0,0,0.332,18,1,1000700101
"1145",1,10007,"non-social","learner",0,0,1,1.086,19,1,1000700101
"1146",1,10007,"non-social","sequencer",0,1,0,0.477,20,1,1000700001
"1147",1,10007,"non-social","sequencer",1,1,1,0.362,21,1,1000700001
"1148",1,10007,"non-social","sequencer",0,1,0,1.837,22,1,1000700001
"1149",1,10007,"non-social","sequencer",1,0,0,0.439,23,1,1000700001
"1150",1,10007,"non-social","sequencer",0,0,1,0.435,24,1,1000700001
"1151",1,10007,"non-social","sequencer",0,1,0,0.566,25,1,1000700001
"1152",1,10007,"non-social","sequencer",1,0,0,0.36,26,1,1000700001
"1153",1,10007,"non-social","sequencer",1,1,1,0.35,28,1,1000700001
"1154",1,10007,"non-social","sequencer",1,1,1,0.614,29,1,1000700001
"1155",1,10007,"non-social","sequencer",0,1,0,0.379,30,1,1000700001
"1156",1,10007,"non-social","sequencer",0,0,1,0.638,31,1,1000700001
"1157",1,10007,"non-social","sequencer",0,0,1,0.83,32,1,1000700001
"1158",1,10007,"non-social","sequencer",1,1,1,0.958,33,1,1000700001
"1159",1,10007,"non-social","sequencer",1,0,0,0.52,34,1,1000700001
"1160",1,10007,"non-social","sequencer",0,0,1,0.494,35,1,1000700001
"1161",1,10007,"non-social","sequencer",0,1,0,0.621,36,1,1000700001
"1162",1,10007,"non-social","sequencer",0,1,0,0.354,37,1,1000700001
"1163",1,10007,"non-social","sequencer",0,1,0,0.344,38,1,1000700001
"1164",1,10007,"non-social","learner",0,0,1,0.487,39,1,1000700101
"1165",1,10007,"non-social","learner",0,1,0,0.265,40,1,1000700101
"1166",1,10007,"non-social","learner",0,1,0,1.105,41,1,1000700101
"1167",1,10007,"non-social","learner",1,1,1,0.4,42,1,1000700101
"1168",1,10007,"non-social","learner",1,0,0,0.668,43,1,1000700101
"1169",1,10007,"non-social","learner",0,0,1,0.325,44,1,1000700101
"1170",1,10007,"non-social","learner",1,0,0,1.389,45,1,1000700101
"1171",1,10007,"non-social","learner",0,0,1,0.402,46,1,1000700101
"1172",1,10007,"non-social","learner",0,1,0,0.604,47,1,1000700101
"1173",1,10007,"non-social","learner",1,1,1,0.46,48,1,1000700101
"1174",1,10007,"non-social","learner",1,1,1,0.572,49,1,1000700101
"1175",1,10007,"non-social","learner",1,0,0,0.468,50,1,1000700101
"1176",1,10007,"non-social","learner",0,1,0,0.571,51,1,1000700101
"1177",1,10007,"non-social","learner",0,1,0,0.592,52,1,1000700101
"1178",1,10007,"non-social","learner",1,1,1,0.317,53,1,1000700101
"1179",1,10007,"non-social","learner",1,1,1,0.438,54,1,1000700101
"1180",1,10007,"non-social","learner",1,0,0,0.515,55,1,1000700101
"1181",1,10007,"non-social","learner",0,0,1,0.349,56,1,1000700101
"1182",1,10007,"non-social","learner",0,1,0,0.307,57,1,1000700101
"1183",1,10007,"non-social","sequencer",1,1,1,0.762,58,1,1000700001
"1184",1,10007,"non-social","sequencer",1,1,1,0.498,59,1,1000700001
"1185",1,10007,"non-social","sequencer",1,0,0,0.617,60,1,1000700001
"1186",1,10007,"non-social","sequencer",0,0,1,0.447,61,1,1000700001
"1187",1,10007,"non-social","sequencer",1,0,0,0.918,62,1,1000700001
"1188",1,10007,"non-social","sequencer",1,1,1,0.33,63,1,1000700001
"1189",1,10007,"non-social","sequencer",1,1,1,0.369,64,1,1000700001
"1190",1,10007,"non-social","sequencer",1,0,0,0.333,65,1,1000700001
"1191",1,10007,"non-social","sequencer",0,1,0,0.354,66,1,1000700001
"1192",1,10007,"non-social","sequencer",1,1,1,1.88,67,1,1000700001
"1193",1,10007,"non-social","sequencer",1,0,0,0.362,68,1,1000700001
"1194",1,10007,"non-social","sequencer",0,0,1,0.504,69,1,1000700001
"1195",1,10007,"non-social","sequencer",0,0,1,0.452,70,1,1000700001
"1196",1,10007,"non-social","sequencer",1,1,1,0.287,71,1,1000700001
"1197",1,10007,"non-social","sequencer",0,1,0,0.809,72,1,1000700001
"1198",1,10007,"non-social","sequencer",0,0,1,1.176,73,1,1000700001
"1199",1,10007,"non-social","sequencer",0,0,1,0.412,74,1,1000700001
"1200",1,10007,"non-social","sequencer",0,1,0,0.419,75,1,1000700001
"1201",1,10007,"non-social","sequencer",1,0,0,0.24,76,1,1000700001
"1202",1,10007,"non-social","learner",1,0,0,1.573,77,2,1000700102
"1203",1,10007,"non-social","learner",0,1,0,0.475,78,2,1000700102
"1204",1,10007,"non-social","learner",1,1,1,0.388,79,2,1000700102
"1205",1,10007,"non-social","learner",1,0,0,0.343,80,2,1000700102
"1206",1,10007,"non-social","learner",1,0,0,0.377,81,2,1000700102
"1207",1,10007,"non-social","learner",1,0,0,0.326,82,2,1000700102
"1208",1,10007,"non-social","learner",0,0,1,0.552,83,2,1000700102
"1209",1,10007,"non-social","learner",0,0,1,0.544,84,2,1000700102
"1210",1,10007,"non-social","learner",0,1,0,0.971,85,2,1000700102
"1211",1,10007,"non-social","learner",0,1,0,0.28,86,2,1000700102
"1212",1,10007,"non-social","learner",0,1,0,0.891,87,2,1000700102
"1213",1,10007,"non-social","learner",1,1,1,0.335,88,2,1000700102
"1214",1,10007,"non-social","learner",1,1,1,0.369,89,2,1000700102
"1215",1,10007,"non-social","learner",0,0,1,0.399,90,2,1000700102
"1216",1,10007,"non-social","learner",1,1,1,0.362,91,2,1000700102
"1217",1,10007,"non-social","learner",1,1,1,0.431,92,2,1000700102
"1218",1,10007,"non-social","learner",0,0,1,0.35,93,2,1000700102
"1219",1,10007,"non-social","learner",0,1,0,0.416,94,2,1000700102
"1220",1,10007,"non-social","learner",1,0,0,0.725,95,2,1000700102
"1221",1,10007,"non-social","sequencer",0,0,1,1.93,96,2,1000700002
"1222",1,10007,"non-social","sequencer",0,1,0,0.587,97,2,1000700002
"1223",1,10007,"non-social","sequencer",0,1,0,0.457,98,2,1000700002
"1224",1,10007,"non-social","sequencer",0,0,1,0.677,99,2,1000700002
"1225",1,10007,"non-social","sequencer",0,0,1,0.66,100,2,1000700002
"1226",1,10007,"non-social","sequencer",0,1,0,0.58,101,2,1000700002
"1227",1,10007,"non-social","sequencer",0,1,0,0.358,102,2,1000700002
"1228",1,10007,"non-social","sequencer",1,0,0,0.358,103,2,1000700002
"1229",1,10007,"non-social","sequencer",0,0,1,0.331,104,2,1000700002
"1230",1,10007,"non-social","sequencer",0,1,0,0.654,105,2,1000700002
"1231",1,10007,"non-social","sequencer",0,1,0,0.445,106,2,1000700002
"1232",1,10007,"non-social","sequencer",0,0,1,0.404,107,2,1000700002
"1233",1,10007,"non-social","sequencer",1,0,0,0.33,108,2,1000700002
"1234",1,10007,"non-social","sequencer",1,1,1,0.379,109,2,1000700002
"1235",1,10007,"non-social","sequencer",1,1,1,0.454,110,2,1000700002
"1236",1,10007,"non-social","sequencer",0,0,1,0.818,111,2,1000700002
"1237",1,10007,"non-social","sequencer",1,0,0,0.506,112,2,1000700002
"1238",1,10007,"non-social","sequencer",1,1,1,0.503,113,2,1000700002
"1239",1,10007,"non-social","sequencer",0,1,0,0.771,114,2,1000700002
"1240",1,10007,"non-social","learner",1,1,1,0.407,115,2,1000700102
"1241",1,10007,"non-social","learner",1,0,0,0.656,116,2,1000700102
"1242",1,10007,"non-social","learner",1,0,0,1.38,117,2,1000700102
"1243",1,10007,"non-social","learner",1,0,0,0.349,118,2,1000700102
"1244",1,10007,"non-social","learner",0,0,1,0.576,119,2,1000700102
"1245",1,10007,"non-social","learner",0,0,1,0.752,120,2,1000700102
"1246",1,10007,"non-social","learner",0,1,0,0.7,121,2,1000700102
"1247",1,10007,"non-social","learner",1,1,1,0.668,122,2,1000700102
"1248",1,10007,"non-social","learner",0,0,1,0.301,123,2,1000700102
"1249",1,10007,"non-social","learner",1,1,1,0.416,124,2,1000700102
"1250",1,10007,"non-social","learner",0,1,0,0.621,125,2,1000700102
"1251",1,10007,"non-social","learner",0,1,0,1.144,126,2,1000700102
"1252",1,10007,"non-social","learner",1,1,1,0.395,127,2,1000700102
"1253",1,10007,"non-social","learner",0,0,1,0.406,128,2,1000700102
"1254",1,10007,"non-social","learner",1,1,1,0.39,129,2,1000700102
"1255",1,10007,"non-social","learner",1,0,0,0.461,130,2,1000700102
"1256",1,10007,"non-social","learner",0,0,1,0.594,131,2,1000700102
"1257",1,10007,"non-social","learner",1,0,0,0.323,132,2,1000700102
"1258",1,10007,"non-social","learner",1,0,0,1.902,133,2,1000700102
"1259",1,10007,"non-social","sequencer",0,0,1,0.637,134,2,1000700002
"1260",1,10007,"non-social","sequencer",0,1,0,0.39,135,2,1000700002
"1261",1,10007,"non-social","sequencer",1,1,1,0.502,136,2,1000700002
"1262",1,10007,"non-social","sequencer",1,0,0,0.404,137,2,1000700002
"1263",1,10007,"non-social","sequencer",0,0,1,0.432,138,2,1000700002
"1264",1,10007,"non-social","sequencer",0,1,0,0.494,139,2,1000700002
"1265",1,10007,"non-social","sequencer",1,1,1,0.461,140,2,1000700002
"1266",1,10007,"non-social","sequencer",1,0,0,0.322,141,2,1000700002
"1267",1,10007,"non-social","sequencer",0,0,1,0.598,142,2,1000700002
"1268",1,10007,"non-social","sequencer",1,1,1,0.47,143,2,1000700002
"1269",1,10007,"non-social","sequencer",1,1,1,0.471,144,2,1000700002
"1270",1,10007,"non-social","sequencer",0,0,1,0.681,145,2,1000700002
"1271",1,10007,"non-social","sequencer",1,0,0,0.54,146,2,1000700002
"1272",1,10007,"non-social","sequencer",1,1,1,0.373,147,2,1000700002
"1273",1,10007,"non-social","sequencer",0,0,1,0.836,149,2,1000700002
"1274",1,10007,"non-social","sequencer",0,0,1,0.456,150,2,1000700002
"1275",1,10007,"non-social","sequencer",1,0,0,0.365,151,2,1000700002
"1276",1,10007,"non-social","sequencer",1,1,1,0.419,152,2,1000700002
"1277",1,10007,"non-social","learner",0,1,0,1.378,153,3,1000700103
"1278",1,10007,"non-social","learner",1,1,1,1.072,154,3,1000700103
"1279",1,10007,"non-social","learner",0,0,1,0.414,155,3,1000700103
"1280",1,10007,"non-social","learner",1,1,1,0.493,156,3,1000700103
"1281",1,10007,"non-social","learner",1,0,0,0.433,157,3,1000700103
"1282",1,10007,"non-social","learner",0,0,1,0.352,158,3,1000700103
"1283",1,10007,"non-social","learner",0,1,0,0.364,159,3,1000700103
"1284",1,10007,"non-social","learner",1,1,1,0.616,160,3,1000700103
"1285",1,10007,"non-social","learner",0,0,1,0.419,161,3,1000700103
"1286",1,10007,"non-social","learner",0,1,0,0.641,162,3,1000700103
"1287",1,10007,"non-social","learner",1,1,1,0.384,163,3,1000700103
"1288",1,10007,"non-social","learner",0,0,1,0.418,164,3,1000700103
"1289",1,10007,"non-social","learner",1,1,1,0.392,165,3,1000700103
"1290",1,10007,"non-social","learner",1,0,0,0.387,166,3,1000700103
"1291",1,10007,"non-social","learner",1,1,1,0.312,167,3,1000700103
"1292",1,10007,"non-social","learner",1,0,0,0.534,168,3,1000700103
"1293",1,10007,"non-social","learner",1,0,0,0.317,169,3,1000700103
"1294",1,10007,"non-social","learner",0,0,1,0.42,170,3,1000700103
"1295",1,10007,"non-social","learner",0,0,1,0.417,171,3,1000700103
"1296",1,10007,"non-social","sequencer",0,1,0,1.302,172,3,1000700003
"1297",1,10007,"non-social","sequencer",1,0,0,0.347,173,3,1000700003
"1298",1,10007,"non-social","sequencer",1,0,0,0.368,174,3,1000700003
"1299",1,10007,"non-social","sequencer",0,1,0,0.476,175,3,1000700003
"1300",1,10007,"non-social","sequencer",0,1,0,0.286,176,3,1000700003
"1301",1,10007,"non-social","sequencer",0,0,1,0.658,177,3,1000700003
"1302",1,10007,"non-social","sequencer",1,0,0,0.661,178,3,1000700003
"1303",1,10007,"non-social","sequencer",1,1,1,0.329,179,3,1000700003
"1304",1,10007,"non-social","sequencer",0,1,0,0.355,180,3,1000700003
"1305",1,10007,"non-social","sequencer",0,0,1,0.418,181,3,1000700003
"1306",1,10007,"non-social","sequencer",1,1,1,0.33,182,3,1000700003
"1307",1,10007,"non-social","sequencer",0,1,0,0.452,183,3,1000700003
"1308",1,10007,"non-social","sequencer",0,1,0,0.306,184,3,1000700003
"1309",1,10007,"non-social","sequencer",0,0,1,0.677,185,3,1000700003
"1310",1,10007,"non-social","sequencer",1,0,0,0.652,186,3,1000700003
"1311",1,10007,"non-social","sequencer",1,1,1,0.372,187,3,1000700003
"1312",1,10007,"non-social","sequencer",0,1,0,0.641,188,3,1000700003
"1313",1,10007,"non-social","sequencer",0,0,1,0.336,189,3,1000700003
"1314",1,10007,"non-social","sequencer",1,1,1,0.434,190,3,1000700003
"1315",1,10007,"non-social","learner",0,1,0,0.444,191,3,1000700103
"1316",1,10007,"non-social","learner",0,1,0,1.692,192,3,1000700103
"1317",1,10007,"non-social","learner",0,1,0,0.46,193,3,1000700103
"1318",1,10007,"non-social","learner",1,1,1,0.285,194,3,1000700103
"1319",1,10007,"non-social","learner",1,1,1,0.494,195,3,1000700103
"1320",1,10007,"non-social","learner",1,0,0,1.405,196,3,1000700103
"1321",1,10007,"non-social","learner",0,0,1,0.425,197,3,1000700103
"1322",1,10007,"non-social","learner",0,1,0,0.528,198,3,1000700103
"1323",1,10007,"non-social","learner",1,1,1,0.374,199,3,1000700103
"1324",1,10007,"non-social","learner",0,1,0,0.259,200,3,1000700103
"1325",1,10007,"non-social","learner",0,1,0,0.501,201,3,1000700103
"1326",1,10007,"non-social","learner",1,1,1,0.323,202,3,1000700103
"1327",1,10007,"non-social","learner",1,0,0,0.291,203,3,1000700103
"1328",1,10007,"non-social","learner",1,0,0,0.379,204,3,1000700103
"1329",1,10007,"non-social","learner",1,0,0,0.415,205,3,1000700103
"1330",1,10007,"non-social","learner",0,0,1,0.041,206,3,1000700103
"1331",1,10007,"non-social","learner",1,1,1,0.333,207,3,1000700103
"1332",1,10007,"non-social","learner",0,0,1,0.427,208,3,1000700103
"1333",1,10007,"non-social","learner",0,0,1,0.472,209,3,1000700103
"1334",1,10007,"non-social","sequencer",1,1,1,0.42,210,3,1000700003
"1335",1,10007,"non-social","sequencer",0,1,0,0.657,211,3,1000700003
"1336",1,10007,"non-social","sequencer",0,0,1,0.305,212,3,1000700003
"1337",1,10007,"non-social","sequencer",0,1,0,1.821,213,3,1000700003
"1338",1,10007,"non-social","sequencer",1,0,0,0.423,214,3,1000700003
"1339",1,10007,"non-social","sequencer",1,0,0,0.289,215,3,1000700003
"1340",1,10007,"non-social","sequencer",1,1,1,0.374,216,3,1000700003
"1341",1,10007,"non-social","sequencer",1,1,1,0.38,217,3,1000700003
"1342",1,10007,"non-social","sequencer",1,1,1,0.451,218,3,1000700003
"1343",1,10007,"non-social","sequencer",1,1,1,0.341,219,3,1000700003
"1344",1,10007,"non-social","sequencer",1,0,0,0.687,220,3,1000700003
"1345",1,10007,"non-social","sequencer",0,0,1,0.353,221,3,1000700003
"1346",1,10007,"non-social","sequencer",0,1,0,0.375,222,3,1000700003
"1347",1,10007,"non-social","sequencer",1,1,1,0.331,223,3,1000700003
"1348",1,10007,"non-social","sequencer",1,1,1,0.364,224,3,1000700003
"1349",1,10007,"non-social","sequencer",0,1,0,0.398,225,3,1000700003
"1350",1,10007,"non-social","sequencer",1,0,0,0.417,226,3,1000700003
"1351",1,10007,"non-social","sequencer",0,1,0,0.421,227,3,1000700003
"1352",1,10007,"non-social","sequencer",1,0,0,0.548,228,3,1000700003
"1353",1,10008,"non-social","learner",0,0,1,1.842,2,1,1000800101
"1354",1,10008,"non-social","learner",1,1,1,0.117,5,1,1000800101
"1355",1,10008,"non-social","learner",1,1,1,1.452,7,1,1000800101
"1356",1,10008,"non-social","learner",0,0,1,1.434,9,1,1000800101
"1357",1,10008,"non-social","learner",0,0,1,0.945,10,1,1000800101
"1358",1,10008,"non-social","learner",1,1,1,1.2,11,1,1000800101
"1359",1,10008,"non-social","learner",0,0,1,0.683,12,1,1000800101
"1360",1,10008,"non-social","learner",0,0,1,0.972,13,1,1000800101
"1361",1,10008,"non-social","learner",1,1,1,1.25,14,1,1000800101
"1362",1,10008,"non-social","learner",1,0,0,0.779,15,1,1000800101
"1363",1,10008,"non-social","learner",1,0,0,1.419,17,1,1000800101
"1364",1,10008,"non-social","learner",0,0,1,1.641,18,1,1000800101
"1365",1,10008,"non-social","learner",1,0,0,0.601,19,1,1000800101
"1366",1,10008,"non-social","sequencer",1,1,1,1.335,20,1,1000800001
"1367",1,10008,"non-social","sequencer",1,1,1,0.686,21,1,1000800001
"1368",1,10008,"non-social","sequencer",1,1,1,1.399,22,1,1000800001
"1369",1,10008,"non-social","sequencer",1,0,0,0.539,23,1,1000800001
"1370",1,10008,"non-social","sequencer",1,0,0,0.711,24,1,1000800001
"1371",1,10008,"non-social","sequencer",1,1,1,0.511,25,1,1000800001
"1372",1,10008,"non-social","sequencer",1,0,0,0.648,26,1,1000800001
"1373",1,10008,"non-social","sequencer",1,0,0,0.789,27,1,1000800001
"1374",1,10008,"non-social","sequencer",1,1,1,0.641,28,1,1000800001
"1375",1,10008,"non-social","sequencer",1,1,1,1.19,29,1,1000800001
"1376",1,10008,"non-social","sequencer",0,1,0,0.7,30,1,1000800001
"1377",1,10008,"non-social","sequencer",0,0,1,0.572,31,1,1000800001
"1378",1,10008,"non-social","sequencer",1,0,0,0.581,32,1,1000800001
"1379",1,10008,"non-social","sequencer",1,1,1,0.79,33,1,1000800001
"1380",1,10008,"non-social","sequencer",1,0,0,0.476,35,1,1000800001
"1381",1,10008,"non-social","sequencer",0,1,0,0.345,36,1,1000800001
"1382",1,10008,"non-social","sequencer",1,1,1,0.394,37,1,1000800001
"1383",1,10008,"non-social","sequencer",1,1,1,0.428,38,1,1000800001
"1384",1,10008,"non-social","learner",0,0,1,0.76,39,1,1000800101
"1385",1,10008,"non-social","learner",0,1,0,0.598,40,1,1000800101
"1386",1,10008,"non-social","learner",0,1,0,0.425,41,1,1000800101
"1387",1,10008,"non-social","learner",0,1,0,0.615,42,1,1000800101
"1388",1,10008,"non-social","learner",0,1,0,1.311,43,1,1000800101
"1389",1,10008,"non-social","learner",0,1,0,1.028,44,1,1000800101
"1390",1,10008,"non-social","learner",0,1,0,0.606,45,1,1000800101
"1391",1,10008,"non-social","learner",1,1,1,1.301,46,1,1000800101
"1392",1,10008,"non-social","learner",0,1,0,0.523,47,1,1000800101
"1393",1,10008,"non-social","learner",1,1,1,0.98,48,1,1000800101
"1394",1,10008,"non-social","learner",1,1,1,0.479,49,1,1000800101
"1395",1,10008,"non-social","learner",1,0,0,0.616,50,1,1000800101
"1396",1,10008,"non-social","learner",0,1,0,0.342,51,1,1000800101
"1397",1,10008,"non-social","learner",1,1,1,0.612,52,1,1000800101
"1398",1,10008,"non-social","learner",1,1,1,0.41,53,1,1000800101
"1399",1,10008,"non-social","learner",1,0,0,0.454,54,1,1000800101
"1400",1,10008,"non-social","learner",1,0,0,0.703,55,1,1000800101
"1401",1,10008,"non-social","learner",0,0,1,0.346,56,1,1000800101
"1402",1,10008,"non-social","learner",0,1,0,0.302,57,1,1000800101
"1403",1,10008,"non-social","sequencer",0,1,0,0.339,58,1,1000800001
"1404",1,10008,"non-social","sequencer",1,1,1,0.54,59,1,1000800001
"1405",1,10008,"non-social","sequencer",1,0,0,0.534,60,1,1000800001
"1406",1,10008,"non-social","sequencer",1,0,0,0.727,61,1,1000800001
"1407",1,10008,"non-social","sequencer",0,0,1,0.396,62,1,1000800001
"1408",1,10008,"non-social","sequencer",0,1,0,0.412,63,1,1000800001
"1409",1,10008,"non-social","sequencer",1,0,0,0.634,65,1,1000800001
"1410",1,10008,"non-social","sequencer",0,1,0,0.377,66,1,1000800001
"1411",1,10008,"non-social","sequencer",0,1,0,0.278,67,1,1000800001
"1412",1,10008,"non-social","sequencer",0,0,1,0.298,68,1,1000800001
"1413",1,10008,"non-social","sequencer",0,0,1,0.775,69,1,1000800001
"1414",1,10008,"non-social","sequencer",1,0,0,1.056,70,1,1000800001
"1415",1,10008,"non-social","sequencer",0,1,0,0.666,71,1,1000800001
"1416",1,10008,"non-social","sequencer",0,1,0,0.796,72,1,1000800001
"1417",1,10008,"non-social","sequencer",1,0,0,1.48,73,1,1000800001
"1418",1,10008,"non-social","sequencer",0,0,1,1.105,74,1,1000800001
"1419",1,10008,"non-social","sequencer",0,1,0,0.465,75,1,1000800001
"1420",1,10008,"non-social","sequencer",1,0,0,0.331,76,1,1000800001
"1421",1,10008,"non-social","learner",0,0,1,0.545,77,2,1000800102
"1422",1,10008,"non-social","learner",0,1,0,0.506,78,2,1000800102
"1423",1,10008,"non-social","learner",1,1,1,0.359,79,2,1000800102
"1424",1,10008,"non-social","learner",1,1,1,0.609,80,2,1000800102
"1425",1,10008,"non-social","learner",1,0,0,0.551,81,2,1000800102
"1426",1,10008,"non-social","learner",1,0,0,0.966,82,2,1000800102
"1427",1,10008,"non-social","learner",0,0,1,1.26,83,2,1000800102
"1428",1,10008,"non-social","learner",0,1,0,0.515,84,2,1000800102
"1429",1,10008,"non-social","learner",1,1,1,0.436,85,2,1000800102
"1430",1,10008,"non-social","learner",1,0,0,0.479,86,2,1000800102
"1431",1,10008,"non-social","learner",0,0,1,0.85,87,2,1000800102
"1432",1,10008,"non-social","learner",1,0,0,1.113,88,2,1000800102
"1433",1,10008,"non-social","learner",0,0,1,0.651,89,2,1000800102
"1434",1,10008,"non-social","learner",0,1,0,0.646,90,2,1000800102
"1435",1,10008,"non-social","learner",0,1,0,0.693,91,2,1000800102
"1436",1,10008,"non-social","learner",0,1,0,0.781,92,2,1000800102
"1437",1,10008,"non-social","learner",0,1,0,1.71,93,2,1000800102
"1438",1,10008,"non-social","learner",1,1,1,0.878,94,2,1000800102
"1439",1,10008,"non-social","learner",1,0,0,0.463,95,2,1000800102
"1440",1,10008,"non-social","sequencer",0,0,1,0.613,96,2,1000800002
"1441",1,10008,"non-social","sequencer",0,1,0,1.113,97,2,1000800002
"1442",1,10008,"non-social","sequencer",0,1,0,0.695,98,2,1000800002
"1443",1,10008,"non-social","sequencer",1,0,0,0.929,99,2,1000800002
"1444",1,10008,"non-social","sequencer",0,0,1,0.552,100,2,1000800002
"1445",1,10008,"non-social","sequencer",0,1,0,0.522,101,2,1000800002
"1446",1,10008,"non-social","sequencer",0,1,0,0.933,102,2,1000800002
"1447",1,10008,"non-social","sequencer",1,0,0,1.083,103,2,1000800002
"1448",1,10008,"non-social","sequencer",1,0,0,0.397,104,2,1000800002
"1449",1,10008,"non-social","sequencer",0,1,0,0.457,105,2,1000800002
"1450",1,10008,"non-social","sequencer",1,1,1,0.962,106,2,1000800002
"1451",1,10008,"non-social","sequencer",1,0,0,1.047,107,2,1000800002
"1452",1,10008,"non-social","sequencer",0,0,1,0.776,108,2,1000800002
"1453",1,10008,"non-social","sequencer",0,1,0,1.072,109,2,1000800002
"1454",1,10008,"non-social","sequencer",1,1,1,0.483,110,2,1000800002
"1455",1,10008,"non-social","sequencer",0,0,1,0.47,111,2,1000800002
"1456",1,10008,"non-social","sequencer",0,0,1,0.922,112,2,1000800002
"1457",1,10008,"non-social","sequencer",0,1,0,0.833,113,2,1000800002
"1458",1,10008,"non-social","sequencer",1,1,1,0.523,114,2,1000800002
"1459",1,10008,"non-social","learner",0,0,1,1.744,115,2,1000800102
"1460",1,10008,"non-social","learner",0,1,0,0.592,116,2,1000800102
"1461",1,10008,"non-social","learner",1,1,1,1.013,117,2,1000800102
"1462",1,10008,"non-social","learner",1,0,0,1.793,118,2,1000800102
"1463",1,10008,"non-social","learner",0,0,1,0.555,119,2,1000800102
"1464",1,10008,"non-social","learner",0,1,0,0.853,120,2,1000800102
"1465",1,10008,"non-social","learner",1,1,1,0.328,121,2,1000800102
"1466",1,10008,"non-social","learner",1,0,0,0.38,122,2,1000800102
"1467",1,10008,"non-social","learner",0,0,1,0.799,123,2,1000800102
"1468",1,10008,"non-social","learner",0,1,0,0.431,124,2,1000800102
"1469",1,10008,"non-social","learner",1,1,1,0.409,125,2,1000800102
"1470",1,10008,"non-social","learner",0,1,0,0.363,127,2,1000800102
"1471",1,10008,"non-social","learner",0,0,1,0.666,128,2,1000800102
"1472",1,10008,"non-social","learner",1,1,1,0.593,129,2,1000800102
"1473",1,10008,"non-social","learner",1,0,0,0.301,130,2,1000800102
"1474",1,10008,"non-social","learner",0,0,1,0.397,131,2,1000800102
"1475",1,10008,"non-social","learner",1,0,0,1.465,132,2,1000800102
"1476",1,10008,"non-social","learner",0,0,1,0.89,133,2,1000800102
