code,idc,id,social,rtrial,blocktrial,run,payoff,choice,rt,opchoice,opponent,blank,missing,onset_choice,onset_feedback,onset_response,ctrial,ctrial2,trial,opswitch
101,101,1,0,1,0,1,-2,-2,NaN,-1,1,1,0,4.06,0,NaN,0,NaN,0,1
101,101,1,0,2,1,1,1,0,0.671,0,1,0,0,15.512,20.454,16183,1,1,1,1
101,101,1,0,3,2,1,1,0,1.053,0,1,0,0,26.62,32.139,27673,2,2,2,1
101,101,1,0,4,3,1,0,0,0.5,1,1,0,0,36.279,39.781,36779,3,3,3,1
101,101,1,0,5,4,1,0,0,0.396,1,1,0,0,43.408,50.163,43804,4,4,4,1
101,101,1,0,6,5,1,0,0,1.614,1,1,0,0,53.781,59.474,55395,5,5,5,1
101,101,1,0,7,6,1,1,1,0.413,1,1,0,0,66.079,72.991,66492,6,6,6,1
101,101,1,0,8,7,1,1,1,0.592,1,1,0,0,78.974,82.178,79566,7,7,7,1
101,101,1,0,9,8,1,0,1,1.165,0,1,0,0,84.873,89.804,86038,8,8,8,1
101,101,1,0,10,9,1,1,0,0.798,0,1,0,0,95.008,99.551,95806,9,9,9,1
101,101,1,0,11,10,1,1,0,0.44,0,1,0,0,106.831,111.018,107271,10,10,10,1
101,101,1,0,12,11,1,1,1,0.341,1,1,0,0,115.781,122.646,116122,11,11,11,1
101,101,1,0,13,12,1,0,1,0.315,0,1,0,0,126.693,133.13,127008,12,12,12,1
101,101,1,0,14,13,1,1,0,0.307,0,1,0,0,135.936,139.694,136243,13,13,13,1
101,101,1,0,15,14,1,1,1,0.68,1,1,0,0,145.587,148.759,146267,14,14,14,1
101,101,1,0,16,15,1,1,0,1.144,0,1,0,0,153.943,158.554,155087,15,15,15,1
101,101,1,0,17,16,1,1,1,0.961,1,1,0,0,161.998,165.948,162959,16,16,16,1
101,101,1,0,18,17,1,1,0,1.278,0,1,0,0,170.193,174.393,171471,17,17,17,1
101,101,1,0,19,18,1,0,1,1.078,0,1,0,0,182.072,188.833,183150,18,18,18,1
101,101,1,0,20,19,1,0,1,1.876,0,1,0,0,195.541,199.709,197417,19,19,19,1
101,101,1,0,21,0,1,-2,-2,NaN,-1,0,1,0,203.067,0,NaN,0,0,0,0
101,101,1,0,22,1,1,0,0,0.446,1,0,0,0,213.622,218.37,214068,1,1,20,0
101,101,1,0,23,2,1,1,1,0.405,1,0,0,0,225.038,230.621,225443,2,2,21,0
101,101,1,0,24,3,1,1,1,0.472,1,0,0,0,234.201,242.844,234673,3,3,22,0
101,101,1,0,25,4,1,1,0,1.244,0,0,0,0,250.947,254.417,252191,4,4,23,0
101,101,1,0,26,5,1,1,0,0.422,0,0,0,0,261.134,267.412,261556,5,5,24,0
101,101,1,0,27,6,1,1,1,1.333,1,0,0,0,270.144,274.599,271477,6,6,25,0
101,101,1,0,28,7,1,1,0,0.377,0,0,0,0,277.296,281.204,277673,7,7,26,0
101,101,1,0,29,8,1,0,1,0.382,0,0,0,0,285.459,290.042,285841,8,8,27,0
101,101,1,0,30,9,1,0,0,1.577,1,0,0,0,293.666,299.597,295243,9,9,28,0
101,101,1,0,31,10,1,0,0,0.512,1,0,0,0,306.085,313.803,306597,10,10,29,0
101,101,1,0,32,11,1,1,1,0.398,1,0,0,0,320.114,326.465,320512,11,11,30,0
101,101,1,0,33,12,1,0,1,0.387,0,0,0,0,334.622,339.55,335009,12,12,31,0
101,101,1,0,34,13,1,1,0,0.819,0,0,0,0,347.264,351.985,348083,13,13,32,0
101,101,1,0,35,14,1,0,0,0.378,1,0,0,0,357.752,363.523,358130,14,14,33,0
101,101,1,0,36,15,1,0,1,0.798,0,0,0,0,367.769,373.985,368567,15,15,34,0
101,101,1,0,37,16,1,0,1,0.5,0,0,0,0,378.003,381.49,378503,16,16,35,0
101,101,1,0,38,17,1,1,1,1.964,1,0,0,0,384.188,387.847,386152,17,17,36,0
101,101,1,0,39,18,1,0,0,0.47,1,0,0,0,391.757,396.704,392227,18,18,37,0
101,101,1,0,40,19,1,#NAME?,NaN,NaN,1,0,0,1,402.452,409.405,NaN,19,0,38,0
101,101,1,0,41,0,1,-2,-2,NaN,-1,1,1,0,412.817,0,NaN,0,0,0,1
101,101,1,0,42,1,1,1,0,-16.349,0,1,0,0,421.459,429.616,405110,20,20,39,1
101,101,1,0,43,2,1,0,0,-12.816,1,1,0,0,435.609,442.14,422793,21,21,40,1
101,101,1,0,44,3,1,1,1,1.629,1,1,0,0,448.401,452.123,450030,22,22,41,1
101,101,1,0,45,4,1,1,0,0.713,0,1,0,0,455.436,459.812,456149,23,23,42,1
101,101,1,0,46,5,1,0,1,0.516,0,1,0,0,463.911,467.501,464427,24,24,43,1
101,101,1,0,47,6,1,#NAME?,NaN,NaN,0,1,0,1,470.194,476,NaN,25,0,44,1
101,101,1,0,48,7,1,1,0,-6.552,0,1,0,0,479.371,482.159,472819,26,25,45,1
101,101,1,0,49,8,1,0,0,0.492,1,1,0,0,487.891,491.839,488383,27,26,46,1
101,101,1,0,50,9,1,1,1,1.635,1,1,0,0,495.692,502.166,497327,28,27,47,1
101,101,1,0,51,10,1,1,0,0.37,0,1,0,0,504.872,508.739,505242,29,28,48,1
101,101,1,0,52,11,1,1,1,0.341,1,1,0,0,515.838,520.5,516179,30,29,49,1
101,101,1,0,53,12,1,1,0,0.682,0,1,0,0,524.281,528.258,524963,31,30,50,1
101,101,1,0,54,13,1,1,1,0.772,1,1,0,0,532.03,536.94,532802,32,31,51,1
101,101,1,0,55,14,1,1,0,0.387,0,1,0,0,540.235,546.297,540622,33,32,52,1
101,101,1,0,56,15,1,1,1,0.355,1,1,0,0,551.89,554.794,552245,34,33,53,1
101,101,1,0,57,16,1,0,0,0.323,1,1,0,0,559.053,565.046,559376,35,34,54,1
101,101,1,0,58,17,1,0,1,0.328,0,1,0,0,570.164,573.407,570492,36,35,55,1
101,101,1,0,59,18,1,0,1,0.434,0,1,0,0,577.886,581.195,578320,37,36,56,1
101,101,1,0,60,19,1,1,0,0.26,0,1,0,0,588.449,593.887,588709,38,37,57,1
101,101,1,0,61,0,1,-2,-2,NaN,-1,0,1,0,597.407,0,NaN,0,0,0,0
101,101,1,0,62,1,1,1,1,0.644,1,0,0,0,605.618,609.368,606262,20,19,58,0
101,101,1,0,63,2,1,0,0,1.375,1,0,0,0,612.718,617.879,614093,21,20,59,0
101,101,1,0,64,3,1,0,1,0.623,0,0,0,0,622.419,628.591,623042,22,21,60,0
101,101,1,0,65,4,1,1,0,0.553,0,0,0,0,632.958,639.869,633511,23,22,61,0
101,101,1,0,66,5,1,0,1,0.312,0,0,0,0,643.067,648.925,643379,24,23,62,0
101,101,1,0,67,6,1,#NAME?,NaN,NaN,1,0,0,1,652.702,656.54,NaN,25,0,63,0
101,101,1,0,68,7,1,0,0,-6.787,1,0,0,0,661.784,665.664,654997,26,24,64,0
101,101,1,0,69,8,1,0,1,0.24,0,0,0,0,668.717,673.436,668957,27,25,65,0
101,101,1,0,70,9,1,0,0,0.45,1,0,0,0,679.358,682.929,679808,28,26,66,0
101,101,1,0,71,10,1,0,0,0.629,1,0,0,0,686.734,690.093,687363,29,27,67,0
101,101,1,0,72,11,1,1,0,0.947,0,0,0,0,693.188,698.455,694135,30,28,68,0
101,101,1,0,73,12,1,0,1,-0.738,0,0,0,0,704.27,708.332,703532,31,29,69,0
101,101,1,0,74,13,1,0,1,0.362,0,0,0,0,712.822,716.52,713184,32,30,70,0
101,101,1,0,75,14,1,0,0,0.612,1,0,0,0,719.674,724.567,720286,33,31,71,0
101,101,1,0,76,15,1,#NAME?,NaN,NaN,1,0,0,1,727.263,732.331,NaN,34,0,72,0
101,101,1,0,77,16,1,0,1,-8.185,0,0,0,0,737.684,745.065,729499,35,32,73,0
101,101,1,0,78,17,1,1,0,0.98,0,0,0,0,748.717,753.264,749697,36,33,74,0
101,101,1,0,79,18,1,0,0,0.666,1,0,0,0,757.983,762.866,758649,37,34,75,0
101,101,1,0,80,19,1,0,1,0.238,0,0,0,0,768.056,772.037,768294,38,35,76,0
101,101,1,0,1,0,2,-2,-2,NaN,-1,1,1,0,3.671,0,NaN,0,0,0,1
101,101,1,0,2,1,2,0,1,0.481,0,1,0,0,11.94,16.068,12421,39,38,77,1
101,101,1,0,3,2,2,0,0,0.258,1,1,0,0,18.834,23.86,19092,40,39,78,1
101,101,1,0,4,3,2,0,0,0.374,1,1,0,0,33.233,35.525,33607,41,40,79,1
101,101,1,0,5,4,2,0,0,0.335,1,1,0,0,41.095,50.541,41430,42,41,80,1
101,101,1,0,6,5,2,1,1,0.313,1,1,0,0,54.292,60.317,54605,43,42,81,1
101,101,1,0,7,6,2,0,1,0.523,0,1,0,0,64.429,66.852,64952,44,43,82,1
101,101,1,0,8,7,2,1,0,0.791,0,1,0,0,73.783,78.672,74574,45,44,83,1
101,101,1,0,9,8,2,1,1,0.916,1,1,0,0,82.04,84.737,82956,46,45,84,1
101,101,1,0,10,9,2,1,0,0.467,0,1,0,0,91.509,94.621,91976,47,46,85,1
101,101,1,0,11,10,2,1,1,0.424,1,1,0,0,97.901,103.241,98325,48,47,86,1
101,101,1,0,12,11,2,1,0,0.678,0,1,0,0,108.774,116.42,109452,49,48,87,1
101,101,1,0,13,12,2,1,1,0.286,1,1,0,0,121.943,125.861,122229,50,49,88,1
101,101,1,0,14,13,2,1,0,0.381,0,1,0,0,128.814,132.224,129195,51,50,89,1
101,101,1,0,15,14,2,1,1,0.714,1,1,0,0,136.183,142.136,136897,52,51,90,1
101,101,1,0,16,15,2,1,0,0.577,0,1,0,0,146.256,150.726,146833,53,52,91,1
101,101,1,0,17,16,2,1,1,0.296,1,1,0,0,155.32,158.011,155616,54,53,92,1
101,101,1,0,18,17,2,0,0,0.45,1,1,0,0,161.092,165.503,161542,55,54,93,1
101,101,1,0,19,18,2,0,0,1.556,1,1,0,0,170.72,176.152,172276,56,55,94,1
101,101,1,0,20,19,2,0,1,0.963,0,1,0,0,180.805,183.987,181768,57,56,95,1
101,101,1,0,21,0,2,-2,-2,NaN,-1,0,1,0,186.795,0,NaN,0,0,0,0
101,101,1,0,22,1,2,1,0,0.447,0,0,0,0,196.269,201.166,196716,39,36,96,0
101,101,1,0,23,2,2,0,0,0.551,1,0,0,0,210.018,215.328,210569,40,37,97,0
101,101,1,0,24,3,2,0,0,0.845,1,0,0,0,223.67,226.784,224515,41,38,98,0
101,101,1,0,25,4,2,1,0,0.308,0,0,0,0,234.366,237.903,234674,42,39,99,0
101,101,1,0,26,5,2,1,0,0.329,0,0,0,0,243.997,252.051,244326,43,40,100,0
101,101,1,0,27,6,2,0,0,0.388,1,0,0,0,255.25,259.938,255638,44,41,101,0
101,101,1,0,28,7,2,1,1,0.266,1,0,0,0,262.74,267.404,263006,45,42,102,0
101,101,1,0,29,8,2,1,0,0.287,0,0,0,0,272.453,276.349,272740,46,43,103,0
101,101,1,0,30,9,2,1,0,0.3,0,0,0,0,282.251,285.344,282551,47,44,104,0
101,101,1,0,31,10,2,1,1,0.299,1,0,0,0,289.549,299.028,289848,48,45,105,0
101,101,1,0,32,11,2,1,1,0.313,1,0,0,0,302.643,306.007,302956,49,46,106,0
101,101,1,0,33,12,2,1,0,0.294,0,0,0,0,315.535,319.809,315829,50,47,107,0
101,101,1,0,34,13,2,1,0,0.356,0,0,0,0,326.557,332.941,326913,51,48,108,0
101,101,1,0,35,14,2,1,1,0.448,1,0,0,0,337.774,342.445,338222,52,49,109,0
101,101,1,0,36,15,2,1,1,0.301,1,0,0,0,346.521,350.784,346822,53,50,110,0
101,101,1,0,37,16,2,1,0,0.353,0,0,0,0,354.248,359.217,354601,54,51,111,0
101,101,1,0,38,17,2,1,0,0.39,0,0,0,0,365.109,368.046,365499,55,52,112,0
101,101,1,0,39,18,2,1,1,-3.026,1,0,0,0,374.17,379.194,371144,56,53,113,0
101,101,1,0,40,19,2,1,1,0.375,1,0,0,0,383.635,387.416,384010,57,54,114,0
101,101,1,0,41,0,2,-2,-2,NaN,-1,1,1,0,392.69,0,NaN,0,0,0,1
101,101,1,0,42,1,2,1,0,0.453,0,1,0,0,401.967,405.873,402420,58,57,115,1
101,101,1,0,43,2,2,1,1,0.284,1,1,0,0,411.405,417.499,411689,59,58,116,1
101,101,1,0,44,3,2,1,0,0.345,0,1,0,0,421.339,424.005,421684,60,59,117,1
101,101,1,0,45,4,2,0,1,0.524,0,1,0,0,428.979,432.66,429503,61,60,118,1
101,101,1,0,46,5,2,0,1,1.708,0,1,0,0,435.689,440.514,437397,62,61,119,1
101,101,1,0,47,6,2,0,1,0.312,0,1,0,0,445.077,452.069,445389,63,62,120,1
101,101,1,0,48,7,2,1,0,1.149,0,1,0,0,455.223,459.201,456372,64,63,121,1
101,101,1,0,49,8,2,1,0,0.462,0,1,0,0,463.095,466.559,463557,65,64,122,1
101,101,1,0,50,9,2,1,0,0.33,0,1,0,0,473.095,476.091,473425,66,65,123,1
101,101,1,0,51,10,2,0,0,0.341,1,1,0,0,481.454,484.953,481795,67,66,124,1
101,101,1,0,52,11,2,1,1,0.279,1,1,0,0,489.358,493.351,489637,68,67,125,1
101,101,1,0,53,12,2,1,1,0.263,1,1,0,0,497.394,501.421,497657,69,68,126,1
101,101,1,0,54,13,2,0,1,0.302,0,1,0,0,505.091,513.952,505393,70,69,127,1
101,101,1,0,55,14,2,1,0,0.287,0,1,0,0,521.389,524.972,521676,71,70,128,1
101,101,1,0,56,15,2,0,0,0.439,1,1,0,0,529.628,532.819,530067,72,71,129,1
101,101,1,0,57,16,2,1,1,0.319,1,1,0,0,536.918,541.499,537237,73,72,130,1
101,101,1,0,58,17,2,1,1,0.482,1,1,0,0,547.196,553.78,547678,74,73,131,1
101,101,1,0,59,18,2,0,1,0.298,0,1,0,0,559.933,564.554,560231,75,74,132,1
101,101,1,0,60,19,2,1,0,0.257,0,1,0,0,570.496,574.037,570753,76,75,133,1
101,101,1,0,61,0,2,-2,-2,NaN,-1,0,1,0,576.915,0,NaN,0,0,0,0
101,101,1,0,62,1,2,0,1,0.337,0,0,0,0,586.849,590.442,587186,58,55,134,0
101,101,1,0,63,2,2,1,1,0.835,1,0,0,0,593.49,596.572,594325,59,56,135,0
101,101,1,0,64,3,2,1,1,0.329,1,0,0,0,602.6,606.788,602929,60,57,136,0
101,101,1,0,65,4,2,1,0,0.345,0,0,0,0,612.732,616.896,613077,61,58,137,0
101,101,1,0,66,5,2,1,0,0.593,0,0,0,0,619.994,623.714,620587,62,59,138,0
101,101,1,0,67,6,2,1,1,0.394,1,0,0,0,629.239,636.175,629633,63,60,139,0
101,101,1,0,68,7,2,1,1,0.419,1,0,0,0,639.601,643.397,640020,64,61,140,0
101,101,1,0,69,8,2,1,0,0.339,0,0,0,0,650.3,655.587,650639,65,62,141,0
101,101,1,0,70,9,2,1,0,0.416,0,0,0,0,660.83,664.521,661246,66,63,142,0
101,101,1,0,71,10,2,1,1,0.326,1,0,0,0,668.723,675.829,669049,67,64,143,0
101,101,1,0,72,11,2,1,1,0.297,1,0,0,0,681.703,685.976,682000,68,65,144,0
101,101,1,0,73,12,2,1,0,0.29,0,0,0,0,689.977,694.127,690267,69,66,145,0
101,101,1,0,74,13,2,1,0,0.306,0,0,0,0,700.688,705.02,700994,70,67,146,0
101,101,1,0,75,14,2,1,1,0.397,1,0,0,0,711.44,714.497,711837,71,68,147,0
101,101,1,0,76,15,2,1,1,0.368,1,0,0,0,718.538,723.258,718906,72,69,148,0
101,101,1,0,77,16,2,1,0,0.474,0,0,0,0,731.962,735.411,732436,73,70,149,0
101,101,1,0,78,17,2,1,0,0.579,0,0,0,0,738.264,742.981,738843,74,71,150,0
101,101,1,0,79,18,2,0,1,0.46,0,0,0,0,746.857,751.078,747317,75,72,151,0
101,101,1,0,80,19,2,0,0,0.389,1,0,0,0,756.719,763.552,757108,76,73,152,0
101,101,1,0,1,0,3,-2,-2,NaN,-1,1,1,0,5.267,0,NaN,0,0,0,1
101,101,1,0,2,1,3,0,0,0.542,1,1,0,0,21.519,24.671,22061,77,76,153,1
101,101,1,0,3,2,3,0,0,0.347,1,1,0,0,29.546,33.532,29893,78,77,154,1
101,101,1,0,4,3,3,1,1,0.244,1,1,0,0,38.771,44.141,39015,79,78,155,1
101,101,1,0,5,4,3,0,1,0.243,0,1,0,0,48.34,52.719,48583,80,79,156,1
101,101,1,0,6,5,3,1,0,0.327,0,1,0,0,57.277,61.751,57604,81,80,157,1
101,101,1,0,7,6,3,1,0,0.335,0,1,0,0,65.204,72.313,65539,82,81,158,1
101,101,1,0,8,7,3,1,1,0.282,1,1,0,0,77.382,84.524,77664,83,82,159,1
101,101,1,0,9,8,3,0,1,0.334,0,1,0,0,87.801,91.338,88135,84,83,160,1
101,101,1,0,10,9,3,1,0,0.433,0,1,0,0,100.693,104.297,101126,85,84,161,1
101,101,1,0,11,10,3,0,0,0.406,1,1,0,0,107.979,113.236,108385,86,85,162,1
101,101,1,0,12,11,3,1,1,0.635,1,1,0,0,118.599,124.074,119234,87,86,163,1
101,101,1,0,13,12,3,0,1,1.25,0,1,0,0,127.526,133.711,128776,88,87,164,1
101,101,1,0,14,13,3,0,1,0.479,0,1,0,0,136.411,142.706,136890,89,88,165,1
101,101,1,0,15,14,3,0,1,0.331,0,1,0,0,147.758,153.738,148089,90,89,166,1
101,101,1,0,16,15,3,0,1,1.104,0,1,0,0,159.015,162.673,160119,91,90,167,1
101,101,1,0,17,16,3,1,0,0.255,0,1,0,0,167.608,172.778,167863,92,91,168,1
101,101,1,0,18,17,3,1,0,0.302,0,1,0,0,179.23,182.633,179532,93,92,169,1
101,101,1,0,19,18,3,0,0,0.281,1,1,0,0,187.793,195.897,188074,94,93,170,1
101,101,1,0,20,19,3,1,1,0.765,1,1,0,0,200.159,206.394,200924,95,94,171,1
101,101,1,0,21,0,3,-2,-2,NaN,-1,0,1,0,212.934,0,NaN,0,0,0,0
101,101,1,0,22,1,3,1,1,0.406,1,0,0,0,224.392,230.179,224798,77,74,172,0
101,101,1,0,23,2,3,1,0,0.383,0,0,0,0,234.207,237.624,234590,78,75,173,0
101,101,1,0,24,3,3,1,0,0.329,0,0,0,0,242.279,248.43,242608,79,76,174,0
101,101,1,0,25,4,3,1,1,0.27,1,0,0,0,253.382,256.63,253652,80,77,175,0
101,101,1,0,26,5,3,1,1,0.282,1,0,0,0,262.74,268.766,263022,81,78,176,0
101,101,1,0,27,6,3,1,0,0.328,0,0,0,0,273.1,276.864,273428,82,79,177,0
101,101,1,0,28,7,3,1,0,0.854,0,0,0,0,282.075,288.921,282929,83,80,178,0
101,101,1,0,29,8,3,1,1,0.44,1,0,0,0,294.335,298.086,294775,84,81,179,0
101,101,1,0,30,9,3,1,1,0.462,1,0,0,0,304.099,309.333,304561,85,82,180,0
101,101,1,0,31,10,3,1,0,0.406,0,0,0,0,317.839,323.089,318245,86,83,181,0
101,101,1,0,32,11,3,0,0,0.473,1,0,0,0,326.168,331.514,326641,87,84,182,0
101,101,1,0,33,12,3,1,1,-0.607,1,0,0,0,336.706,344.346,336099,88,85,183,0
101,101,1,0,34,13,3,0,0,0.306,1,0,0,0,349.778,354.055,350084,89,86,184,0
101,101,1,0,35,14,3,0,1,0.335,0,0,0,0,357.378,364.968,357713,90,87,185,0
101,101,1,0,36,15,3,1,0,0.293,0,0,0,0,370.268,373.8,370561,91,88,186,0
101,101,1,0,37,16,3,0,0,0.354,1,0,0,0,377.15,382.673,377504,92,89,187,0
101,101,1,0,38,17,3,1,1,0.302,1,0,0,0,387.766,392.958,388068,93,90,188,0
101,101,1,0,39,18,3,0,1,0.865,0,0,0,0,396.66,400.7,397525,94,91,189,0
101,101,1,0,40,19,3,0,0,0.324,1,0,0,0,405.838,410.84,406162,95,92,190,0
101,101,1,0,41,0,3,-2,-2,NaN,-1,1,1,0,415.084,0,NaN,0,0,0,1
101,101,1,0,42,1,3,1,1,0.561,1,1,0,0,422.999,427.57,423560,96,95,191,1
101,101,1,0,43,2,3,1,0,0.283,0,1,0,0,434.857,441.556,435140,97,96,192,1
101,101,1,0,44,3,3,1,1,0.322,1,1,0,0,448.212,452.867,448534,98,97,193,1
101,101,1,0,45,4,3,1,1,0.339,1,1,0,0,459.897,464.262,460236,99,98,194,1
101,101,1,0,46,5,3,0,1,0.605,0,1,0,0,467.623,472.411,468228,100,99,195,1
101,101,1,0,47,6,3,1,0,0.34,0,1,0,0,477.223,480.878,477563,101,100,196,1
101,101,1,0,48,7,3,1,0,0.303,0,1,0,0,486.727,490.568,487030,102,101,197,1
101,101,1,0,49,8,3,0,0,0.377,1,1,0,0,493.274,498.675,493651,103,102,198,1
101,101,1,0,50,9,3,0,0,0.303,1,1,0,0,502.735,506.23,503038,104,103,199,1
101,101,1,0,51,10,3,0,0,0.453,1,1,0,0,513.071,517.414,513524,105,104,200,1
101,101,1,0,52,11,3,1,1,0.245,1,1,0,0,522.022,527.66,522267,106,105,201,1
101,101,1,0,53,12,3,1,1,0.384,1,1,0,0,530.359,532.801,530743,107,106,202,1
101,101,1,0,54,13,3,0,1,0.579,0,1,0,0,538.546,545.429,539125,108,107,203,1
101,101,1,0,55,14,3,1,0,0.652,0,1,0,0,550.542,553.675,551194,109,108,204,1
101,101,1,0,56,15,3,1,0,0.314,0,1,0,0,557.15,561.319,557464,110,109,205,1
101,101,1,0,57,16,3,0,0,0.337,1,1,0,0,564.536,567.305,564873,111,110,206,1
101,101,1,0,58,17,3,1,1,0.272,1,1,0,0,570.318,573.817,570590,112,111,207,1
101,101,1,0,59,18,3,1,1,0.321,1,1,0,0,581.068,585.695,581389,113,112,208,1
101,101,1,0,60,19,3,0,1,0.474,0,1,0,0,588.487,595.501,588961,114,113,209,1
101,101,1,0,61,0,3,-2,-2,NaN,-1,0,1,0,599.008,0,NaN,0,0,0,0
101,101,1,0,62,1,3,0,0,0.52,1,0,0,0,611.442,615.872,611962,96,93,210,0
101,101,1,0,63,2,3,0,0,0.327,1,0,0,0,621.397,625.211,621724,97,94,211,0
101,101,1,0,64,3,3,0,1,0.29,0,0,0,0,629.429,634.795,629719,98,95,212,0
101,101,1,0,65,4,3,0,0,0.386,1,0,0,0,641.075,644.989,641461,99,96,213,0
101,101,1,0,66,5,3,0,1,0.286,0,0,0,0,649.473,652.527,649759,100,97,214,0
101,101,1,0,67,6,3,1,0,0.756,0,0,0,0,658.243,664.546,658999,101,98,215,0
101,101,1,0,68,7,3,0,0,0.706,1,0,0,0,670.172,674.735,670878,102,99,216,0
101,101,1,0,69,8,3,1,1,0.317,1,0,0,0,679.014,681.798,679331,103,100,217,0
101,101,1,0,70,9,3,0,0,0.274,1,0,0,0,686.711,689.881,686985,104,101,218,0
101,101,1,0,71,10,3,1,1,0.42,1,0,0,0,696.118,700.085,696538,105,102,219,0
101,101,1,0,72,11,3,1,0,0.248,0,0,0,0,704.622,707.229,704870,106,103,220,0
101,101,1,0,73,12,3,1,0,0.282,0,0,0,0,709.938,712.142,710220,107,104,221,0
101,101,1,0,74,13,3,0,0,0.438,1,0,0,0,714.843,718.927,715281,108,105,222,0
101,101,1,0,75,14,3,1,1,0.308,1,0,0,0,724.32,728.443,724628,109,106,223,0
101,101,1,0,76,15,3,0,0,0.244,1,0,0,0,732.952,735.973,733196,110,107,224,0
101,101,1,0,77,16,3,#NAME?,NaN,NaN,1,0,0,1,740.195,744.777,NaN,111,0,225,0
101,101,1,0,78,17,3,1,0,-6.438,0,0,0,0,748.923,754.633,742485,112,108,226,0
101,101,1,0,79,18,3,0,0,0.467,1,0,0,0,757.33,760.213,757797,113,109,227,0
101,101,1,0,80,19,3,0,1,-2.575,0,0,0,0,765.862,769.997,763287,114,110,228,0
102,102,2,0,1,0,1,-2,-2,NaN,-1,1,1,0,5.905,0,NaN,0,0,0,1
102,102,2,0,2,1,1,#NAME?,NaN,NaN,0,1,0,1,16.096,21.128,NaN,1,0,1,1
102,102,2,0,3,2,1,1,0,-0.64,0,1,0,0,25.398,28.083,24758,2,1,2,1
102,102,2,0,4,3,1,0,0,-1.631,1,1,0,0,34.431,38.826,32800,3,2,3,1
102,102,2,0,5,4,1,1,1,-0.394,1,1,0,0,43.259,48.525,42865,4,3,4,1
102,102,2,0,6,5,1,1,0,-1.578,0,1,0,0,53.364,56.985,51786,5,4,5,1
102,102,2,0,7,6,1,1,1,-1.36,1,1,0,0,61.459,68.599,60099,6,5,6,1
102,102,2,0,8,7,1,0,0,-3.39,1,1,0,0,74.938,78.244,71548,7,6,7,1
102,102,2,0,9,8,1,0,0,-0.727,1,1,0,0,82.178,85.031,81451,8,7,8,1
102,102,2,0,10,9,1,1,0,-2.653,0,1,0,0,91.421,96.305,88768,9,8,9,1
102,102,2,0,11,10,1,1,1,-0.63,1,1,0,0,99.967,102.926,99337,10,9,10,1
102,102,2,0,12,11,1,1,1,-3.993,1,1,0,0,110.015,113.224,106022,11,10,11,1
102,102,2,0,13,12,1,0,1,-3.395,0,1,0,0,119.534,123.81,116139,12,11,12,1
102,102,2,0,14,13,1,1,0,-3.286,0,1,0,0,130.107,133.626,126821,13,12,13,1
102,102,2,0,15,14,1,0,0,-0.547,1,1,0,0,137.247,140.546,136700,14,13,14,1
102,102,2,0,16,15,1,0,0,-1.89,1,1,0,0,145.543,149.507,143653,15,14,15,1
102,102,2,0,17,16,1,0,0,-2.279,1,1,0,0,154.863,159.74,152584,16,15,16,1
102,102,2,0,18,17,1,0,0,-2.947,1,1,0,0,166.532,170.42,163585,17,16,17,1
102,102,2,0,19,18,1,1,1,-5.62,1,1,0,0,179.061,184.251,173441,18,17,18,1
102,102,2,0,20,19,1,1,0,-0.001,0,1,0,0,187.33,193.966,187329,19,18,19,1
102,102,2,0,21,0,1,-2,-2,NaN,-1,0,1,0,196.635,0,NaN,0,0,0,0
102,102,2,0,22,1,1,1,1,-2.623,1,0,0,0,204.46,208.749,201837,1,1,20,0
102,102,2,0,23,2,1,0,0,-0.231,1,0,0,0,211.979,218.064,211748,2,2,21,0
102,102,2,0,24,3,1,1,1,-0.023,1,0,0,0,221.041,226.383,221018,3,3,22,0
102,102,2,0,25,4,1,0,1,0.697,0,0,0,0,229.525,233.912,230222,4,4,23,0
102,102,2,0,26,5,1,1,0,-0.98,0,0,0,0,238.055,243.918,237075,5,5,24,0
102,102,2,0,27,6,1,1,1,-0.696,1,0,0,0,248.309,253.521,247613,6,6,25,0
102,102,2,0,28,7,1,1,0,-3.861,0,0,0,0,260.487,263.482,256626,7,7,26,0
102,102,2,0,29,8,1,1,0,-6.437,0,0,0,0,272.962,278.879,266525,8,8,27,0
102,102,2,0,30,9,1,1,1,-1.886,1,0,0,0,283.835,287.052,281949,9,9,28,0
102,102,2,0,31,10,1,1,1,-1.354,1,0,0,0,291.393,295.755,290039,10,10,29,0
102,102,2,0,32,11,1,0,0,-1.438,1,0,0,0,300.101,306.161,298663,11,11,30,0
102,102,2,0,33,12,1,1,0,-3.088,0,0,0,0,312.383,314.705,309295,12,12,31,0
102,102,2,0,34,13,1,0,1,-1.402,0,0,0,0,319.227,323.432,317825,13,13,32,0
102,102,2,0,35,14,1,0,0,-0.685,1,0,0,0,327.183,332.16,326498,14,14,33,0
102,102,2,0,36,15,1,0,1,0.182,0,0,0,0,335.594,339.191,335776,15,15,34,0
102,102,2,0,37,16,1,0,1,-2.269,0,0,0,0,344.779,352.588,342510,16,16,35,0
102,102,2,0,38,17,1,1,1,-2.225,1,0,0,0,358.083,361.733,355858,17,17,36,0
102,102,2,0,39,18,1,1,1,-2.486,1,0,0,0,367.742,375.345,365256,18,18,37,0
102,102,2,0,40,19,1,0,0,-4.04,1,0,0,0,382.425,387.059,378385,19,19,38,0
102,102,2,0,41,0,1,-2,-2,NaN,-1,1,1,0,390.431,0,NaN,0,0,0,1
102,102,2,0,42,1,1,1,0,-14,0,1,0,0,404.287,409.781,390287,20,19,39,1
102,102,2,0,43,2,1,0,0,1.365,1,1,0,0,413.447,417.359,414812,21,20,40,1
102,102,2,0,44,3,1,1,1,-0.746,1,1,0,0,422.304,425.143,421558,22,21,41,1
102,102,2,0,45,4,1,0,1,-4.471,0,1,0,0,432.964,437.905,428493,23,22,42,1
102,102,2,0,46,5,1,1,0,-0.565,0,1,0,0,441.695,445.061,441130,24,23,43,1
102,102,2,0,47,6,1,1,1,-0.678,1,1,0,0,449.032,455.256,448354,25,24,44,1
102,102,2,0,48,7,1,0,1,-0.589,0,1,0,0,459.051,461.935,458462,26,25,45,1
102,102,2,0,49,8,1,1,0,-1.385,0,1,0,0,466.445,473.369,465060,27,26,46,1
102,102,2,0,50,9,1,1,1,-3.506,1,1,0,0,480.057,482.729,476551,28,27,47,1
102,102,2,0,51,10,1,1,0,-2.489,0,1,0,0,489.224,494.492,486735,29,28,48,1
102,102,2,0,52,11,1,1,1,-3.079,1,1,0,0,501.336,506.743,498257,30,29,49,1
102,102,2,0,53,12,1,0,1,-5.724,0,1,0,0,515.533,520.465,509809,31,30,50,1
102,102,2,0,54,13,1,1,1,-1.019,1,1,0,0,525.068,529.499,524049,32,31,51,1
102,102,2,0,55,14,1,1,0,-1.738,0,1,0,0,534.368,537.839,532630,33,32,52,1
102,102,2,0,56,15,1,1,1,0.535,1,1,0,0,540.846,549.492,541381,34,33,53,1
102,102,2,0,57,16,1,0,0,0.479,1,1,0,0,552.198,555.25,552677,35,34,54,1
102,102,2,0,58,17,1,0,1,-4.909,0,1,0,0,563.825,567.811,558916,36,35,55,1
102,102,2,0,59,18,1,0,1,0.64,0,1,0,0,570.957,577.413,571597,37,36,56,1
102,102,2,0,60,19,1,1,0,0.641,0,1,0,0,581.513,584.426,582154,38,37,57,1
102,102,2,0,61,0,1,-2,-2,NaN,-1,0,1,0,587.086,0,NaN,0,0,0,0
102,102,2,0,62,1,1,1,1,-4.871,1,0,0,0,597.554,600.164,592683,20,20,58,0
102,102,2,0,63,2,1,1,1,1.489,1,0,0,0,602.871,606.345,604360,21,21,59,0
102,102,2,0,64,3,1,1,0,0.922,0,0,0,0,609.203,613.428,610125,22,22,60,0
102,102,2,0,65,4,1,0,1,0.686,0,0,0,0,616.132,619.432,616818,23,23,61,0
102,102,2,0,66,5,1,1,0,-1.063,0,0,0,0,623.986,626.733,622923,24,24,62,0
102,102,2,0,67,6,1,0,0,-1.349,1,0,0,0,631.756,635.793,630407,25,25,63,0
102,102,2,0,68,7,1,1,1,-0.791,1,0,0,0,639.641,644.923,638850,26,26,64,0
102,102,2,0,69,8,1,1,0,-0.689,0,0,0,0,648.942,653.193,648253,27,27,65,0
102,102,2,0,70,9,1,1,1,0.83,1,0,0,0,656.181,660.078,657011,28,28,66,0
102,102,2,0,71,10,1,0,0,-3.349,1,0,0,0,666.594,671.555,663245,29,29,67,0
102,102,2,0,72,11,1,0,1,-5.354,0,0,0,0,680.039,684.334,674685,30,30,68,0
102,102,2,0,73,12,1,0,1,-0.764,0,0,0,0,688.369,694.613,687605,31,31,69,0
102,102,2,0,74,13,1,1,0,-0.916,0,0,0,0,698.679,702.855,697763,32,32,70,0
102,102,2,0,75,14,1,1,1,-3.848,1,0,0,0,709.884,714.228,706036,33,33,71,0
102,102,2,0,76,15,1,0,0,-0.936,1,0,0,0,718.425,721.518,717489,34,34,72,0
102,102,2,0,77,16,1,0,1,-1.258,0,0,0,0,725.836,731.416,724578,35,35,73,0
102,102,2,0,78,17,1,1,0,-1.892,0,0,0,0,736.769,742.103,734877,36,36,74,0
102,102,2,0,79,18,1,0,0,-3.218,1,0,0,0,749.181,755.367,745963,37,37,75,0
102,102,2,0,80,19,1,1,0,-4.946,0,0,0,0,763.489,768.336,758543,38,38,76,0
102,102,2,0,1,0,2,-2,-2,NaN,-1,1,1,0,4.754,0,NaN,0,0,0,1
102,102,2,0,2,1,2,1,0,0.723,0,1,0,0,16.404,19.375,17127,39,38,77,1
102,102,2,0,3,2,2,1,1,1.061,1,1,0,0,24.742,28.022,25803,40,39,78,1
102,102,2,0,4,3,2,1,0,0.554,0,1,0,0,32.846,37.496,33400,41,40,79,1
102,102,2,0,5,4,2,1,1,0.614,1,1,0,0,40.187,44.84,40801,42,41,80,1
102,102,2,0,6,5,2,1,0,0.601,0,1,0,0,51.636,60.38,52237,43,42,81,1
102,102,2,0,7,6,2,0,1,0.56,0,1,0,0,67.035,71.68,67595,44,43,82,1
102,102,2,0,8,7,2,1,1,0.637,1,1,0,0,78.232,82.064,78869,45,44,83,1
102,102,2,0,9,8,2,1,0,0.608,0,1,0,0,90.049,96.131,90657,46,45,84,1
102,102,2,0,10,9,2,0,0,0.917,1,1,0,0,100.031,105.611,100948,47,46,85,1
102,102,2,0,11,10,2,1,1,1.341,1,1,0,0,110.469,113.616,111810,48,47,86,1
102,102,2,0,12,11,2,1,0,0.767,0,1,0,0,118.485,126.101,119252,49,48,87,1
102,102,2,0,13,12,2,0,0,0.759,1,1,0,0,130.435,134.996,131194,50,49,88,1
102,102,2,0,14,13,2,1,1,0.815,1,1,0,0,138.098,141.711,138913,51,50,89,1
102,102,2,0,15,14,2,1,0,0.927,0,1,0,0,145.146,150.941,146073,52,51,90,1
102,102,2,0,16,15,2,1,1,0.905,1,1,0,0,157.254,161.535,158159,53,52,91,1
102,102,2,0,17,16,2,1,1,1.047,1,1,0,0,168.116,170.356,169163,54,53,92,1
102,102,2,0,18,17,2,1,0,0.757,0,1,0,0,173.996,180.315,174753,55,54,93,1
102,102,2,0,19,18,2,1,1,0.681,1,1,0,0,183.919,187.625,184600,56,55,94,1
102,102,2,0,20,19,2,0,1,0.75,0,1,0,0,191.211,197.313,191961,57,56,95,1
102,102,2,0,21,0,2,-2,-2,NaN,-1,0,1,0,201.858,0,NaN,0,0,0,0
102,102,2,0,22,1,2,0,1,1.085,0,0,0,0,211.296,214.814,212381,39,39,96,0
102,102,2,0,23,2,2,0,0,0.457,1,0,0,0,220.771,228.105,221228,40,40,97,0
102,102,2,0,24,3,2,1,1,0.501,1,0,0,0,234.094,237.647,234595,41,41,98,0
102,102,2,0,25,4,2,1,0,0.89,0,0,0,0,242.721,248.631,243611,42,42,99,0
102,102,2,0,26,5,2,0,1,0.983,0,0,0,0,252.084,254.706,253067,43,43,100,0
102,102,2,0,27,6,2,0,0,0.501,1,0,0,0,259.691,265.667,260192,44,44,101,0
102,102,2,0,28,7,2,1,1,1.433,1,0,0,0,270.672,274.168,272105,45,45,102,0
102,102,2,0,29,8,2,1,0,0.865,0,0,0,0,278.389,283.479,279254,46,46,103,0
102,102,2,0,30,9,2,1,0,0.981,0,0,0,0,286.274,290.431,287255,47,47,104,0
102,102,2,0,31,10,2,1,1,0.589,1,0,0,0,294.348,297.945,294937,48,48,105,0
102,102,2,0,32,11,2,0,0,0.548,1,0,0,0,301.263,304.374,301811,49,49,106,0
102,102,2,0,33,12,2,0,1,0.639,0,0,0,0,312.684,317.482,313323,50,50,107,0
102,102,2,0,34,13,2,1,0,0.713,0,0,0,0,321.1,324.135,321813,51,51,108,0
102,102,2,0,35,14,2,1,1,0.451,1,0,0,0,328.921,337.962,329372,52,52,109,0
102,102,2,0,36,15,2,1,1,1.649,1,0,0,0,341.305,344.902,342954,53,53,110,0
102,102,2,0,37,16,2,1,0,0.771,0,0,0,0,348.976,353.156,349747,54,54,111,0
102,102,2,0,38,17,2,1,0,0.914,0,0,0,0,357.642,362.944,358556,55,55,112,0
102,102,2,0,39,18,2,1,1,0.984,1,0,0,0,366.233,373.409,367217,56,56,113,0
102,102,2,0,40,19,2,0,0,0.868,1,0,0,0,377.874,380.364,378742,57,57,114,0
102,102,2,0,41,0,2,-2,-2,NaN,-1,1,1,0,388.785,0,NaN,0,0,0,1
102,102,2,0,42,1,2,0,0,0.571,1,1,0,0,396.976,403.159,397547,58,57,115,1
102,102,2,0,43,2,2,0,0,0.54,1,1,0,0,412.464,416.678,413004,59,58,116,1
102,102,2,0,44,3,2,0,0,1.619,1,1,0,0,419.594,422.081,421213,60,59,117,1
102,102,2,0,45,4,2,1,1,0.525,1,1,0,0,426.069,429.755,426594,61,60,118,1
102,102,2,0,46,5,2,0,0,0.54,1,1,0,0,433.64,435.987,434180,62,61,119,1
102,102,2,0,47,6,2,1,1,0.488,1,1,0,0,439.296,443.67,439784,63,62,120,1
102,102,2,0,48,7,2,0,1,0.474,0,1,0,0,446.774,450.481,447248,64,63,121,1
102,102,2,0,49,8,2,1,0,0.487,0,1,0,0,453.812,460.394,454299,65,64,122,1
102,102,2,0,50,9,2,0,1,0.504,0,1,0,0,466.176,471.167,466680,66,65,123,1
102,102,2,0,51,10,2,1,0,0.644,0,1,0,0,480.411,485.576,481055,67,66,124,1
102,102,2,0,52,11,2,0,0,0.568,1,1,0,0,488.981,494.71,489549,68,67,125,1
102,102,2,0,53,12,2,1,1,0.554,1,1,0,0,499.748,502.012,500302,69,68,126,1
102,102,2,0,54,13,2,1,1,0.648,1,1,0,0,505.546,512.236,506194,70,69,127,1
102,102,2,0,55,14,2,1,0,0.71,0,1,0,0,518.008,520.855,518718,71,70,128,1
102,102,2,0,56,15,2,1,1,1.16,1,1,0,0,527.437,530.627,528597,72,71,129,1
102,102,2,0,57,16,2,0,1,0.799,0,1,0,0,533.372,537.268,534171,73,72,130,1
102,102,2,0,58,17,2,1,0,0.671,0,1,0,0,541.122,545.055,541793,74,73,131,1
102,102,2,0,59,18,2,0,1,0.542,0,1,0,0,550.099,556.79,550641,75,74,132,1
102,102,2,0,60,19,2,0,1,0.814,0,1,0,0,560.816,566.862,561630,76,75,133,1
102,102,2,0,61,0,2,-2,-2,NaN,-1,0,1,0,572,0,NaN,0,0,0,0
102,102,2,0,62,1,2,0,1,0.508,0,0,0,0,580.788,585.024,581296,58,58,134,0
102,102,2,0,63,2,2,0,0,0.584,1,0,0,0,589.87,594.226,590454,59,59,135,0
102,102,2,0,64,3,2,0,0,0.914,1,0,0,0,598.837,604.124,599751,60,60,136,0
102,102,2,0,65,4,2,0,1,0.601,0,0,0,0,608.582,613.228,609183,61,61,137,0
102,102,2,0,66,5,2,1,0,0.401,0,0,0,0,619.255,623.651,619656,62,62,138,0
102,102,2,0,67,6,2,1,1,0.657,1,0,0,0,626.505,633.063,627162,63,63,139,0
102,102,2,0,68,7,2,0,0,0.556,1,0,0,0,639.012,644.459,639568,64,64,140,0
102,102,2,0,69,8,2,1,0,0.6,0,0,0,0,651.066,658.716,651666,65,65,141,0
102,102,2,0,70,9,2,1,0,0.518,0,0,0,0,666.525,669.923,667043,66,66,142,0
102,102,2,0,71,10,2,1,1,0.549,1,0,0,0,676.287,679.567,676836,67,67,143,0
102,102,2,0,72,11,2,1,1,0.945,1,0,0,0,687.292,692.417,688237,68,68,144,0
102,102,2,0,73,12,2,1,0,0.61,0,0,0,0,696.667,702.376,697277,69,69,145,0
102,102,2,0,74,13,2,1,0,0.608,0,0,0,0,707.337,712.721,707945,70,70,146,0
102,102,2,0,75,14,2,1,1,0.917,1,0,0,0,715.558,722.002,716475,71,71,147,0
102,102,2,0,76,15,2,1,1,0.525,1,0,0,0,727.657,733.596,728182,72,72,148,0
102,102,2,0,77,16,2,1,0,0.555,0,0,0,0,738.978,741.509,739533,73,73,149,0
102,102,2,0,78,17,2,1,0,0.699,0,0,0,0,747.587,751.607,748286,74,74,150,0
102,102,2,0,79,18,2,0,1,0.619,0,0,0,0,756.51,762.63,757129,75,75,151,0
102,102,2,0,80,19,2,0,0,0.486,1,0,0,0,767.934,770.99,768420,76,76,152,0
102,102,2,0,1,0,3,-2,-2,NaN,-1,1,1,0,6.338,0,NaN,0,0,0,1
102,102,2,0,2,1,3,1,1,0.676,1,1,0,0,13.402,19.536,14078,77,76,153,1
102,102,2,0,3,2,3,1,0,0.599,0,1,0,0,24.247,28.522,24846,78,77,154,1
102,102,2,0,4,3,3,1,1,0.703,1,1,0,0,32.918,38.312,33621,79,78,155,1
102,102,2,0,5,4,3,1,0,1.251,0,1,0,0,41.943,44.624,43194,80,79,156,1
102,102,2,0,6,5,3,1,1,0.621,1,1,0,0,47.809,51.169,48430,81,80,157,1
102,102,2,0,7,6,3,1,0,0.675,0,1,0,0,54.141,58.241,54816,82,81,158,1
102,102,2,0,8,7,3,1,1,0.489,1,1,0,0,61.398,64.361,61887,83,82,159,1
102,102,2,0,9,8,3,1,0,0.655,0,1,0,0,69.333,77.6,69988,84,83,160,1
102,102,2,0,10,9,3,0,1,0.451,0,1,0,0,81.829,85.492,82280,85,84,161,1
102,102,2,0,11,10,3,0,1,0.666,0,1,0,0,90.145,95.778,90811,86,85,162,1
102,102,2,0,12,11,3,1,0,0.538,0,1,0,0,101.73,106.864,102268,87,86,163,1
102,102,2,0,13,12,3,0,1,0.635,0,1,0,0,109.651,114.614,110286,88,87,164,1
102,102,2,0,14,13,3,0,1,0.642,0,1,0,0,121.661,128.313,122303,89,88,165,1
102,102,2,0,15,14,3,1,0,0.425,0,1,0,0,135.961,141.529,136386,90,89,166,1
102,102,2,0,16,15,3,1,1,0.486,1,1,0,0,145.702,150.792,146188,91,90,167,1
102,102,2,0,17,16,3,1,1,0.584,1,1,0,0,153.55,159.333,154134,92,91,168,1
102,102,2,0,18,17,3,1,0,0.411,0,1,0,0,163.741,168.13,164152,93,92,169,1
102,102,2,0,19,18,3,1,0,0.466,0,1,0,0,171.258,174.554,171724,94,93,170,1
102,102,2,0,20,19,3,0,1,0.669,0,1,0,0,178.024,182.997,178693,95,94,171,1
102,102,2,0,21,0,3,-2,-2,NaN,-1,0,1,0,188.146,0,NaN,0,0,0,0
102,102,2,0,22,1,3,1,1,0.551,1,0,0,0,195.655,201.803,196206,77,77,172,0
102,102,2,0,23,2,3,1,0,0.615,0,0,0,0,207.02,211.747,207635,78,78,173,0
102,102,2,0,24,3,3,0,1,0.732,0,0,0,0,215.293,220.472,216025,79,79,174,0
102,102,2,0,25,4,3,0,0,0.507,1,0,0,0,230.205,234.099,230712,80,80,175,0
102,102,2,0,26,5,3,1,1,0.509,1,0,0,0,238.03,242.412,238539,81,81,176,0
102,102,2,0,27,6,3,1,0,0.682,0,0,0,0,245.551,248.58,246233,82,82,177,0
102,102,2,0,28,7,3,1,0,0.491,0,0,0,0,252.013,256.028,252504,83,83,178,0
102,102,2,0,29,8,3,1,1,0.397,1,0,0,0,261.893,266.316,262290,84,84,179,0
102,102,2,0,30,9,3,1,1,0.419,1,0,0,0,269.969,275.234,270388,85,85,180,0
102,102,2,0,31,10,3,1,0,0.416,0,0,0,0,279.92,284.769,280336,86,86,181,0
102,102,2,0,32,11,3,1,1,0.381,1,0,0,0,291.872,295.272,292253,87,87,182,0
102,102,2,0,33,12,3,1,1,0.414,1,0,0,0,301.031,310.466,301445,88,88,183,0
102,102,2,0,34,13,3,0,0,0.495,1,0,0,0,315.389,320.958,315884,89,89,184,0
102,102,2,0,35,14,3,0,1,0.414,0,0,0,0,326.947,330.348,327361,90,90,185,0
102,102,2,0,36,15,3,1,0,0.393,0,0,0,0,334.712,338.3,335105,91,91,186,0
102,102,2,0,37,16,3,1,1,0.388,1,0,0,0,344.228,346.538,344616,92,92,187,0
102,102,2,0,38,17,3,0,0,0.451,1,0,0,0,352.059,356.429,352510,93,93,188,0
102,102,2,0,39,18,3,0,1,0.534,0,0,0,0,359.126,362.004,359660,94,94,189,0
102,102,2,0,40,19,3,1,1,0.445,1,0,0,0,367.769,371.102,368214,95,95,190,0
102,102,2,0,41,0,3,-2,-2,NaN,-1,1,1,0,375.23,0,NaN,0,0,0,1
102,102,2,0,42,1,3,0,0,0.613,1,1,0,0,382.769,387.331,383382,96,95,191,1
102,102,2,0,43,2,3,0,0,0.364,1,1,0,0,391.669,397.683,392033,97,96,192,1
102,102,2,0,44,3,3,1,1,0.387,1,1,0,0,402.505,407.128,402892,98,97,193,1
102,102,2,0,45,4,3,1,1,0.528,1,1,0,0,411.664,421.073,412192,99,98,194,1
102,102,2,0,46,5,3,1,0,0.497,0,1,0,0,425.526,428.568,426023,100,99,195,1
102,102,2,0,47,6,3,0,0,0.397,1,1,0,0,433.927,441.754,434324,101,100,196,1
102,102,2,0,48,7,3,1,1,0.474,1,1,0,0,448.009,454.144,448483,102,101,197,1
102,102,2,0,49,8,3,1,1,0.63,1,1,0,0,459.449,462.654,460079,103,102,198,1
102,102,2,0,50,9,3,1,0,0.404,0,1,0,0,467.268,471.71,467672,104,103,199,1
102,102,2,0,51,10,3,0,0,0.415,1,1,0,0,477.974,485.444,478389,105,104,200,1
102,102,2,0,52,11,3,1,1,0.4,1,1,0,0,489.905,493.119,490305,106,105,201,1
102,102,2,0,53,12,3,0,0,0.42,1,1,0,0,496.158,504.595,496578,107,106,202,1
102,102,2,0,54,13,3,1,1,0.328,1,1,0,0,509.894,515.003,510222,108,107,203,1
102,102,2,0,55,14,3,0,1,0.38,0,1,0,0,517.841,523.429,518221,109,108,204,1
102,102,2,0,56,15,3,1,0,0.427,0,1,0,0,526.637,532.286,527064,110,109,205,1
102,102,2,0,57,16,3,1,1,0.324,1,1,0,0,541.014,545.642,541338,111,110,206,1
102,102,2,0,58,17,3,1,1,0.473,1,1,0,0,549.945,554.842,550418,112,111,207,1
102,102,2,0,59,18,3,1,0,0.313,0,1,0,0,558.924,563.855,559237,113,112,208,1
102,102,2,0,60,19,3,1,0,0.366,0,1,0,0,566.915,572.881,567281,114,113,209,1
102,102,2,0,61,0,3,-2,-2,NaN,-1,0,1,0,579.408,0,NaN,0,0,0,0
102,102,2,0,62,1,3,1,1,1.168,1,0,0,0,589.471,592.802,590639,96,96,210,0
102,102,2,0,63,2,3,0,0,0.667,1,0,0,0,597.828,603.731,598495,97,97,211,0
102,102,2,0,64,3,3,0,1,0.314,0,0,0,0,609.868,615.858,610182,98,98,212,0
102,102,2,0,65,4,3,0,0,0.474,1,0,0,0,619.62,624.798,620094,99,99,213,0
102,102,2,0,66,5,3,0,1,0.368,0,0,0,0,628.779,634.992,629147,100,100,214,0
102,102,2,0,67,6,3,1,0,0.354,0,0,0,0,641.262,645.391,641616,101,101,215,0
102,102,2,0,68,7,3,1,1,0.435,1,0,0,0,648.39,651.899,648825,102,102,216,0
102,102,2,0,69,8,3,0,0,0.386,1,0,0,0,655.409,659.246,655795,103,103,217,0
102,102,2,0,70,9,3,0,0,0.295,1,0,0,0,664.284,669.636,664579,104,104,218,0
102,102,2,0,71,10,3,1,1,0.261,1,0,0,0,674.891,678.401,675152,105,105,219,0
102,102,2,0,72,11,3,0,1,0.312,0,0,0,0,682.965,687.993,683277,106,106,220,0
102,102,2,0,73,12,3,1,0,0.301,0,0,0,0,693.359,695.874,693660,107,107,221,0
102,102,2,0,74,13,3,0,0,0.337,1,0,0,0,700.501,705.432,700838,108,108,222,0
102,102,2,0,75,14,3,1,1,0.446,1,0,0,0,709.857,716.525,710303,109,109,223,0
102,102,2,0,76,15,3,1,1,0.309,1,0,0,0,721.954,726.862,722263,110,110,224,0
102,102,2,0,77,16,3,0,0,0.307,1,0,0,0,731.236,734.531,731543,111,111,225,0
102,102,2,0,78,17,3,0,1,0.253,0,0,0,0,738.482,742.811,738735,112,112,226,0
102,102,2,0,79,18,3,0,0,0.367,1,0,0,0,745.877,752.346,746244,113,113,227,0
102,102,2,0,80,19,3,0,1,0.275,0,0,0,0,756.887,764.509,757162,114,114,228,0
103,103,3,0,1,0,1,-2,-2,NaN,-1,1,1,0,4.372,0,NaN,0,0,0,1
103,103,3,0,2,1,1,1,0,0.889,0,1,0,0,15.889,18.854,16778,1,1,1,1
103,103,3,0,3,2,1,1,0,0.498,0,1,0,0,25.186,28.46,25684,2,2,2,1
103,103,3,0,4,3,1,0,0,0.637,1,1,0,0,33.688,38.337,34325,3,3,3,1
103,103,3,0,5,4,1,1,1,0.366,1,1,0,0,44.161,48.824,44527,4,4,4,1
103,103,3,0,6,5,1,0,1,0.705,0,1,0,0,52.264,61.017,52969,5,5,5,1
103,103,3,0,7,6,1,0,0,0.392,1,1,0,0,64.819,69.465,65211,6,6,6,1
103,103,3,0,8,7,1,0,0,0.554,1,1,0,0,74.312,78.146,74866,7,7,7,1
103,103,3,0,9,8,1,0,0,0.404,1,1,0,0,81.367,87.458,81771,8,8,8,1
103,103,3,0,10,9,1,0,0,0.538,1,1,0,0,91.824,97.407,92362,9,9,9,1
103,103,3,0,11,10,1,1,1,0.474,1,1,0,0,100.922,104.073,101396,10,10,10,1
103,103,3,0,12,11,1,1,1,0.508,1,1,0,0,109.133,116.748,109641,11,11,11,1
103,103,3,0,13,12,1,0,1,1.001,0,1,0,0,122.144,126.708,123145,12,12,12,1
103,103,3,0,14,13,1,1,0,0.651,0,1,0,0,135.888,139.494,136539,13,13,13,1
103,103,3,0,15,14,1,0,0,0.808,1,1,0,0,142.518,148.307,143326,14,14,14,1
103,103,3,0,16,15,1,1,1,0.548,1,1,0,0,154.314,158.595,154862,15,15,15,1
103,103,3,0,17,16,1,1,1,0.578,1,1,0,0,162.84,165.08,163418,16,16,16,1
103,103,3,0,18,17,1,0,1,0.58,0,1,0,0,167.781,173.937,168361,17,17,17,1
103,103,3,0,19,18,1,1,0,0.623,0,1,0,0,176.629,180.018,177252,18,18,18,1
103,103,3,0,20,19,1,1,0,0.323,0,1,0,0,184.972,191.066,185295,19,19,19,1
103,103,3,0,21,0,1,-2,-2,NaN,-1,0,1,0,195.008,0,NaN,0,0,0,0
103,103,3,0,22,1,1,1,1,0.412,1,0,0,0,202.44,205.958,202852,1,1,20,0
103,103,3,0,23,2,1,1,1,0.512,1,0,0,0,212.132,219.464,212644,2,2,21,0
103,103,3,0,24,3,1,0,0,1.053,1,0,0,0,226.043,229.594,227096,3,3,22,0
103,103,3,0,25,4,1,0,1,0.378,0,0,0,0,238.127,244.032,238505,4,4,23,0
103,103,3,0,26,5,1,1,0,0.603,0,0,0,0,249.733,252.349,250336,5,5,24,0
103,103,3,0,27,6,1,0,0,0.657,1,0,0,0,259.511,265.482,260168,6,6,25,0
103,103,3,0,28,7,1,0,1,0.837,0,0,0,0,268.358,271.856,269195,7,7,26,0
103,103,3,0,29,8,1,1,0,0.542,0,0,0,0,276.153,281.246,276695,8,8,27,0
103,103,3,0,30,9,1,0,0,1.029,1,0,0,0,284.587,288.746,285616,9,9,28,0
103,103,3,0,31,10,1,0,0,0.564,1,0,0,0,295.169,298.767,295733,10,10,29,0
103,103,3,0,32,11,1,1,1,0.5,1,0,0,0,304.287,307.39,304787,11,11,30,0
103,103,3,0,33,12,1,0,1,0.755,0,0,0,0,311.279,316.073,312034,12,12,31,0
103,103,3,0,34,13,1,1,0,0.734,0,0,0,0,320.287,323.323,321021,13,13,32,0
103,103,3,0,35,14,1,0,0,0.726,1,0,0,0,328.677,337.724,329403,14,14,33,0
103,103,3,0,36,15,1,0,1,0.83,0,0,0,0,340.421,343.814,341251,15,15,34,0
103,103,3,0,37,16,1,1,0,0.95,0,0,0,0,347.012,351.199,347962,16,16,35,0
103,103,3,0,38,17,1,1,1,0.903,1,0,0,0,354.439,359.748,355342,17,17,36,0
103,103,3,0,39,18,1,1,1,1.361,1,0,0,0,363.184,370.357,364545,18,18,37,0
103,103,3,0,40,19,1,1,1,0.776,1,0,0,0,374.721,377.208,375497,19,19,38,0
103,103,3,0,41,0,1,-2,-2,NaN,-1,1,1,0,381.305,0,NaN,0,0,0,1
103,103,3,0,42,1,1,1,0,0.763,0,1,0,0,387.299,393.478,388062,20,20,39,1
103,103,3,0,43,2,1,0,0,0.765,1,1,0,0,396.379,400.596,397144,21,21,40,1
103,103,3,0,44,3,1,1,1,0.616,1,1,0,0,407.909,410.386,408525,22,22,41,1
103,103,3,0,45,4,1,0,1,0.695,0,1,0,0,418.345,422.028,419040,23,23,42,1
103,103,3,0,46,5,1,1,0,0.504,0,1,0,0,429.677,432.022,430181,24,24,43,1
103,103,3,0,47,6,1,1,0,0.613,0,1,0,0,437.772,442.146,438385,25,25,44,1
103,103,3,0,48,7,1,0,0,0.824,1,1,0,0,445.436,449.139,446260,26,26,45,1
103,103,3,0,49,8,1,1,1,0.752,1,1,0,0,454.139,460.714,454891,27,27,46,1
103,103,3,0,50,9,1,1,1,0.631,1,1,0,0,469.973,474.962,470604,28,28,47,1
103,103,3,0,51,10,1,0,1,0.454,0,1,0,0,479.18,484.351,479634,29,29,48,1
103,103,3,0,52,11,1,1,0,0.393,0,1,0,0,491.493,497.216,491886,30,30,49,1
103,103,3,0,53,12,1,1,0,0.569,0,1,0,0,502.712,504.977,503281,31,31,50,1
103,103,3,0,54,13,1,0,0,0.713,1,1,0,0,508.244,514.93,508957,32,32,51,1
103,103,3,0,55,14,1,1,1,0.421,1,1,0,0,520.139,522.977,520560,33,33,52,1
103,103,3,0,56,15,1,1,1,0.932,1,1,0,0,526.103,529.296,527035,34,34,53,1
103,103,3,0,57,16,1,0,0,0.507,1,1,0,0,532.312,536.195,532819,35,35,54,1
103,103,3,0,58,17,1,0,1,0.38,0,1,0,0,542.911,546.842,543291,36,36,55,1
103,103,3,0,59,18,1,1,0,0.373,0,1,0,0,551.567,558.258,551940,37,37,56,1
103,103,3,0,60,19,1,0,0,0.641,1,1,0,0,563.606,569.652,564247,38,38,57,1
103,103,3,0,61,0,1,-2,-2,NaN,-1,0,1,0,573.461,0,NaN,0,0,0,0
103,103,3,0,62,1,1,1,1,0.375,1,0,0,0,584.547,588.776,584922,20,20,58,0
103,103,3,0,63,2,1,1,1,0.584,1,0,0,0,593.395,597.75,593979,21,21,59,0
103,103,3,0,64,3,1,1,0,0.66,0,0,0,0,601.162,606.452,601822,22,22,60,0
103,103,3,0,65,4,1,1,0,0.693,0,0,0,0,609.701,614.349,610394,23,23,61,0
103,103,3,0,66,5,1,1,0,0.468,0,0,0,0,617.048,621.398,617516,24,24,62,0
103,103,3,0,67,6,1,0,0,0.403,1,0,0,0,625.523,632.074,625926,25,25,63,0
103,103,3,0,68,7,1,1,1,1.013,1,0,0,0,637.042,642.486,638055,26,26,64,0
103,103,3,0,69,8,1,0,1,0.534,0,0,0,0,647.807,655.456,648341,27,27,65,0
103,103,3,0,70,9,1,0,0,0.508,1,0,0,0,660.92,664.318,661428,28,28,66,0
103,103,3,0,71,10,1,0,0,0.691,1,0,0,0,669.123,672.4,669814,29,29,67,0
103,103,3,0,72,11,1,0,1,0.559,0,0,0,0,679.306,684.435,679865,30,30,68,0
103,103,3,0,73,12,1,1,0,1.301,0,0,0,0,690.394,696.102,691695,31,31,69,0
103,103,3,0,74,13,1,1,0,0.684,0,0,0,0,701.491,706.874,702175,32,32,70,0
103,103,3,0,75,14,1,0,0,0.59,1,0,0,0,715.23,721.664,715820,33,33,71,0
103,103,3,0,76,15,1,1,1,0.552,1,0,0,0,726.317,732.258,726869,34,34,72,0
103,103,3,0,77,16,1,0,1,1.041,0,0,0,0,736.727,739.261,737768,35,35,73,0
103,103,3,0,78,17,1,1,0,1.336,0,0,0,0,742.777,746.802,744113,36,36,74,0
103,103,3,0,79,18,1,0,0,0.607,1,0,0,0,750.512,756.635,751119,37,37,75,0
103,103,3,0,80,19,1,0,1,0.656,0,0,0,0,761.221,764.276,761877,38,38,76,0
103,103,3,0,1,0,2,-2,-2,NaN,-1,1,1,0,3.779,0,NaN,0,0,0,1
103,103,3,0,2,1,2,1,0,1.386,0,1,0,0,10.93,13.315,12316,39,39,77,1
103,103,3,0,3,2,2,0,0,0.476,1,1,0,0,17.329,22.357,17805,40,40,78,1
103,103,3,0,4,3,2,1,1,0.479,1,1,0,0,28.923,35.105,29402,41,41,79,1
103,103,3,0,5,4,2,1,1,0.731,1,1,0,0,42.14,45.931,42871,42,42,80,1
103,103,3,0,6,5,2,0,1,0.475,0,1,0,0,50.382,54.223,50857,43,43,81,1
103,103,3,0,7,6,2,1,0,0.804,0,1,0,0,57.716,61.149,58520,44,44,82,1
103,103,3,0,8,7,2,0,0,0.845,1,1,0,0,64.564,72.803,65409,45,45,83,1
103,103,3,0,9,8,2,1,1,0.335,1,1,0,0,78.812,86.907,79147,46,46,84,1
103,103,3,0,10,9,2,1,0,0.317,0,1,0,0,91.7,99.874,92017,47,47,85,1
103,103,3,0,11,10,2,1,1,0.336,1,1,0,0,105.689,110.397,106025,48,48,86,1
103,103,3,0,12,11,2,1,0,0.449,0,1,0,0,116.703,121.429,117152,49,49,87,1
103,103,3,0,13,12,2,1,1,0.456,1,1,0,0,125.309,133.36,125765,50,50,88,1
103,103,3,0,14,13,2,1,0,0.633,0,1,0,0,141.541,145.733,142174,51,51,89,1
103,103,3,0,15,14,2,1,1,0.479,1,1,0,0,150.235,154.868,150714,52,52,90,1
103,103,3,0,16,15,2,1,0,0.724,0,1,0,0,159.772,167.508,160496,53,53,91,1
103,103,3,0,17,16,2,1,1,0.869,1,1,0,0,170.994,179.027,171863,54,54,92,1
103,103,3,0,18,17,2,0,0,0.754,1,1,0,0,182.339,187.809,183093,55,55,93,1
103,103,3,0,19,18,2,0,0,0.453,1,1,0,0,191.738,195.911,192191,56,56,94,1
103,103,3,0,20,19,2,0,1,-1.601,0,1,0,0,200.837,205.183,199236,57,57,95,1
103,103,3,0,21,0,2,-2,-2,NaN,-1,0,1,0,208.932,0,NaN,0,0,0,0
103,103,3,0,22,1,2,0,1,0.732,0,0,0,0,219.15,224.239,219882,39,39,96,0
103,103,3,0,23,2,2,1,1,0.349,1,0,0,0,229.58,234.401,229929,40,40,97,0
103,103,3,0,24,3,2,0,0,0.559,1,0,0,0,237.949,240.973,238508,41,41,98,0
103,103,3,0,25,4,2,1,0,0.519,0,0,0,0,245.315,250.906,245834,42,42,99,0
103,103,3,0,26,5,2,1,0,0.392,0,0,0,0,255.759,262.332,256151,43,43,100,0
103,103,3,0,27,6,2,1,1,0.527,1,0,0,0,265.179,267.852,265706,44,44,101,0
103,103,3,0,28,7,2,1,1,0.326,1,0,0,0,272.298,276.837,272624,45,45,102,0
103,103,3,0,29,8,2,1,0,0.429,0,0,0,0,279.559,284.222,279988,46,46,103,0
103,103,3,0,30,9,2,1,0,0.654,0,0,0,0,287.75,292.136,288404,47,47,104,0
103,103,3,0,31,10,2,1,1,0.753,1,0,0,0,300.326,303.564,301079,48,48,105,0
103,103,3,0,32,11,2,1,1,0.814,1,0,0,0,311.395,317.002,312209,49,49,106,0
103,103,3,0,33,12,2,1,0,0.559,0,0,0,0,323.143,327.885,323702,50,50,107,0
103,103,3,0,34,13,2,1,0,0.71,0,0,0,0,334.364,338.82,335074,51,51,108,0
103,103,3,0,35,14,2,1,1,0.629,1,0,0,0,341.55,345.627,342179,52,52,109,0
103,103,3,0,36,15,2,1,1,0.816,1,0,0,0,349.999,354.567,350815,53,53,110,0
103,103,3,0,37,16,2,1,0,0.471,0,0,0,0,360.381,364.994,360852,54,54,111,0
103,103,3,0,38,17,2,1,0,0.703,0,0,0,0,368.313,373.161,369016,55,55,112,0
103,103,3,0,39,18,2,1,1,0.596,1,0,0,0,378.953,383.173,379549,56,56,113,0
103,103,3,0,40,19,2,1,1,0.99,1,0,0,0,385.868,390.107,386858,57,57,114,0
103,103,3,0,41,0,2,-2,-2,NaN,-1,1,1,0,394.096,0,NaN,0,0,0,1
103,103,3,0,42,1,2,0,1,0.331,0,1,0,0,401.503,407.963,401834,58,58,115,1
103,103,3,0,43,2,2,0,1,0.385,0,1,0,0,413.329,416.057,413714,59,59,116,1
103,103,3,0,44,3,2,1,0,0.519,0,1,0,0,418.752,423.031,419271,60,60,117,1
103,103,3,0,45,4,2,0,1,0.392,0,1,0,0,427.827,430.864,428219,61,61,118,1
103,103,3,0,46,5,2,0,1,0.469,0,1,0,0,438.422,447.847,438891,62,62,119,1
103,103,3,0,47,6,2,0,1,0.418,0,1,0,0,450.847,456.184,451265,63,63,120,1
103,103,3,0,48,7,2,1,0,0.516,0,1,0,0,461.49,464.298,462006,64,64,121,1
103,103,3,0,49,8,2,1,0,0.509,0,1,0,0,472.023,479.818,472532,65,65,122,1
103,103,3,0,50,9,2,1,0,1.223,0,1,0,0,483.244,492.19,484467,66,66,123,1
103,103,3,0,51,10,2,0,0,0.702,1,1,0,0,494.887,503.345,495589,67,67,124,1
103,103,3,0,52,11,2,1,1,0.831,1,1,0,0,506.045,509.251,506876,68,68,125,1
103,103,3,0,53,12,2,1,1,0.737,1,1,0,0,513.843,521.18,514580,69,69,126,1
103,103,3,0,54,13,2,0,1,0.604,0,1,0,0,525.251,528.469,525855,70,70,127,1
103,103,3,0,55,14,2,1,0,0.614,0,1,0,0,532.272,535.039,532886,71,71,128,1
103,103,3,0,56,15,2,0,0,0.698,1,1,0,0,539.173,543.442,539871,72,72,129,1
103,103,3,0,57,16,2,1,1,0.606,1,1,0,0,546.874,550.432,547480,73,73,130,1
103,103,3,0,58,17,2,0,0,0.427,1,1,0,0,555.933,560.314,556360,74,74,131,1
103,103,3,0,59,18,2,0,1,0.288,0,1,0,0,564.074,568.759,564362,75,75,132,1
103,103,3,0,60,19,2,0,1,0.317,0,1,0,0,573.004,578.08,573321,76,76,133,1
103,103,3,0,61,0,2,-2,-2,NaN,-1,0,1,0,582.064,0,NaN,0,0,0,0
103,103,3,0,62,1,2,1,0,0.888,0,0,0,0,590.806,594.653,591694,58,58,134,0
103,103,3,0,63,2,2,0,0,1.318,1,0,0,0,599.966,606.475,601284,59,59,135,0
103,103,3,0,64,3,2,0,0,0.727,1,0,0,0,611.898,616.989,612625,60,60,136,0
103,103,3,0,65,4,2,0,1,0.364,0,0,0,0,623.614,627.073,623978,61,61,137,0
103,103,3,0,66,5,2,0,1,0.736,0,0,0,0,634.829,638.014,635565,62,62,138,0
103,103,3,0,67,6,2,0,0,0.704,1,0,0,0,642.233,645.154,642937,63,63,139,0
103,103,3,0,68,7,2,0,0,0.399,1,0,0,0,648.067,651.76,648466,64,64,140,0
103,103,3,0,69,8,2,1,0,0.406,0,0,0,0,654.457,658.552,654863,65,65,141,0
103,103,3,0,70,9,2,1,0,0.308,0,0,0,0,661.248,665.734,661556,66,66,142,0
103,103,3,0,71,10,2,0,0,0.77,1,0,0,0,672.771,675.188,673541,67,67,143,0
103,103,3,0,72,11,2,1,1,0.741,1,0,0,0,679.886,686.503,680627,68,68,144,0
103,103,3,0,73,12,2,0,1,0.799,0,0,0,0,690.861,695.575,691660,69,69,145,0
103,103,3,0,74,13,2,1,0,1.2,0,0,0,0,698.824,704.484,700024,70,70,146,0
103,103,3,0,75,14,2,1,1,0.466,1,0,0,0,709.273,717.243,709739,71,71,147,0
103,103,3,0,76,15,2,0,0,0.348,1,0,0,0,721.649,727.92,721997,72,72,148,0
103,103,3,0,77,16,2,0,1,0.643,0,0,0,0,733.101,739.291,733744,73,73,149,0
103,103,3,0,78,17,2,0,1,0.396,0,0,0,0,744.865,747,745261,74,74,150,0
103,103,3,0,79,18,2,1,0,0.445,0,0,0,0,749.944,753.481,750389,75,75,151,0
103,103,3,0,80,19,2,1,1,0.514,1,0,0,0,757.45,763.779,757964,76,76,152,0
103,103,3,0,1,0,3,-2,-2,NaN,-1,1,1,0,5.967,0,NaN,0,0,0,1
103,103,3,0,2,1,3,0,0,0.429,1,1,0,0,19.623,22.538,20052,77,77,153,1
103,103,3,0,3,2,3,1,1,0.386,1,1,0,0,26.901,30.825,27287,78,78,154,1
103,103,3,0,4,3,3,0,1,0.359,0,1,0,0,35.488,39.001,35847,79,79,155,1
103,103,3,0,5,4,3,1,0,0.605,0,1,0,0,45.702,49.207,46307,80,80,156,1
103,103,3,0,6,5,3,0,0,0.463,1,1,0,0,52.133,54.981,52596,81,81,157,1
103,103,3,0,7,6,3,0,0,0.446,1,1,0,0,58.244,61.431,58690,82,82,158,1
103,103,3,0,8,7,3,0,0,0.446,1,1,0,0,64.787,67.521,65233,83,83,159,1
103,103,3,0,9,8,3,0,0,0.273,1,1,0,0,71.739,75.929,72012,84,84,160,1
103,103,3,0,10,9,3,1,1,0.499,1,1,0,0,80.87,87.72,81369,85,85,161,1
103,103,3,0,11,10,3,1,1,0.428,1,1,0,0,97.211,102.078,97639,86,86,162,1
103,103,3,0,12,11,3,0,1,0.478,0,1,0,0,109.744,114.253,110222,87,87,163,1
103,103,3,0,13,12,3,1,0,0.669,0,1,0,0,119.775,124.428,120444,88,88,164,1
103,103,3,0,14,13,3,0,0,0.579,1,1,0,0,128.415,133.854,128994,89,89,165,1
103,103,3,0,15,14,3,1,1,0.242,1,1,0,0,138.793,144.192,139035,90,90,166,1
103,103,3,0,16,15,3,1,1,0.552,1,1,0,0,148.74,152.324,149292,91,91,167,1
103,103,3,0,17,16,3,1,1,0.626,1,1,0,0,158.645,163.309,159271,92,92,168,1
103,103,3,0,18,17,3,0,1,1.084,0,1,0,0,166.553,170.434,167637,93,93,169,1
103,103,3,0,19,18,3,1,0,0.393,0,1,0,0,173.849,177.634,174242,94,94,170,1
103,103,3,0,20,19,3,1,0,0.402,0,1,0,0,181.783,186.064,182185,95,95,171,1
103,103,3,0,21,0,3,-2,-2,NaN,-1,0,1,0,193.667,0,NaN,0,0,0,0
103,103,3,0,22,1,3,0,0,0.791,1,0,0,0,201.191,204.392,201982,77,77,172,0
103,103,3,0,23,2,3,0,1,0.476,0,0,0,0,209.695,216.207,210171,78,78,173,0
103,103,3,0,24,3,3,1,0,0.397,0,0,0,0,220.306,226.787,220703,79,79,174,0
103,103,3,0,25,4,3,0,0,0.471,1,0,0,0,234.387,239.046,234858,80,80,175,0
103,103,3,0,26,5,3,1,1,0.569,1,0,0,0,242.779,248.806,243348,81,81,176,0
103,103,3,0,27,6,3,1,0,0.478,0,0,0,0,252.467,255.82,252945,82,82,177,0
103,103,3,0,28,7,3,0,1,0.418,0,0,0,0,262.759,264.952,263177,83,83,178,0
103,103,3,0,29,8,3,0,0,0.496,1,0,0,0,268.959,271.622,269455,84,84,179,0
103,103,3,0,30,9,3,0,0,0.479,1,0,0,0,279.848,287.272,280327,85,85,180,0
103,103,3,0,31,10,3,0,1,0.529,0,0,0,0,290.301,294.064,290830,86,86,181,0
103,103,3,0,32,11,3,0,0,0.345,1,0,0,0,297.943,302.643,298288,87,87,182,0
103,103,3,0,33,12,3,0,0,0.306,1,0,0,0,309.356,313.679,309662,88,88,183,0
103,103,3,0,34,13,3,1,1,0.676,1,0,0,0,316.508,324.27,317184,89,89,184,0
103,103,3,0,35,14,3,0,1,0.388,0,0,0,0,331.013,333.632,331401,90,90,185,0
103,103,3,0,36,15,3,1,0,0.627,0,0,0,0,337.502,340.906,338129,91,91,186,0
103,103,3,0,37,16,3,0,0,0.485,1,0,0,0,345.611,349.833,346096,92,92,187,0
103,103,3,0,38,17,3,1,1,0.905,1,0,0,0,353.42,360.639,354325,93,93,188,0
103,103,3,0,39,18,3,1,0,0.369,0,0,0,0,364.152,369.012,364521,94,94,189,0
103,103,3,0,40,19,3,1,1,0.423,1,0,0,0,373.809,378.586,374232,95,95,190,0
103,103,3,0,41,0,3,-2,-2,NaN,-1,1,1,0,382.576,0,NaN,0,0,0,1
103,103,3,0,42,1,3,0,0,0.565,1,1,0,0,390.576,395.376,391141,96,96,191,1
103,103,3,0,43,2,3,1,1,0.472,1,1,0,0,404.685,411.087,405157,97,97,192,1
103,103,3,0,44,3,3,1,0,0.418,0,1,0,0,414.482,420.008,414900,98,98,193,1
103,103,3,0,45,4,3,1,1,0.49,1,1,0,0,423.466,426.104,423956,99,99,194,1
103,103,3,0,46,5,3,1,0,0.455,0,1,0,0,434.371,439.743,434826,100,100,195,1
103,103,3,0,47,6,3,1,1,0.453,1,1,0,0,446.259,450.715,446712,101,101,196,1
103,103,3,0,48,7,3,1,0,0.351,0,1,0,0,454.301,458.706,454652,102,102,197,1
103,103,3,0,49,8,3,1,1,0.692,1,1,0,0,463.211,469.542,463903,103,103,198,1
103,103,3,0,50,9,3,1,0,0.429,0,1,0,0,474.555,479.531,474984,104,104,199,1
103,103,3,0,51,10,3,1,1,1.005,1,1,0,0,485.503,490.258,486508,105,105,200,1
103,103,3,0,52,11,3,1,0,0.388,0,1,0,0,493.723,499.726,494111,106,106,201,1
103,103,3,0,53,12,3,1,1,0.623,1,1,0,0,506.339,511.428,506962,107,107,202,1
103,103,3,0,54,13,3,1,0,0.39,0,1,0,0,514.157,518.931,514547,108,108,203,1
103,103,3,0,55,14,3,1,1,0.549,1,1,0,0,523.093,526.291,523642,109,109,204,1
103,103,3,0,56,15,3,1,0,0.685,0,1,0,0,530.345,533.14,531030,110,110,205,1
103,103,3,0,57,16,3,1,1,0.492,1,1,0,0,540.658,544.495,541150,111,111,206,1
103,103,3,0,58,17,3,0,0,0.475,1,1,0,0,547.934,551.905,548409,112,112,207,1
103,103,3,0,59,18,3,1,1,0.413,1,1,0,0,556.548,559.291,556961,113,113,208,1
103,103,3,0,60,19,3,0,1,0.711,0,1,0,0,564.411,567.54,565122,114,114,209,1
103,103,3,0,61,0,3,-2,-2,NaN,-1,0,1,0,575.585,0,NaN,0,0,0,0
103,103,3,0,62,1,3,0,0,0.87,1,0,0,0,583.744,587.058,584614,96,96,210,0
103,103,3,0,63,2,3,0,0,0.562,1,0,0,0,590.813,594.866,591375,97,97,211,0
103,103,3,0,64,3,3,0,1,0.719,0,0,0,0,604.254,606.762,604973,98,98,212,0
103,103,3,0,65,4,3,0,0,0.339,1,0,0,0,610.228,614.936,610567,99,99,213,0
103,103,3,0,66,5,3,0,1,0.409,0,0,0,0,619.662,625.081,620071,100,100,214,0
103,103,3,0,67,6,3,0,1,0.36,0,0,0,0,629.526,635.497,629886,101,101,215,0
103,103,3,0,68,7,3,1,1,0.411,1,0,0,0,642.646,646.567,643057,102,102,216,0
103,103,3,0,69,8,3,1,1,0.436,1,0,0,0,651.173,654.027,651609,103,103,217,0
103,103,3,0,70,9,3,1,1,0.586,1,0,0,0,658.384,662.607,658970,104,104,218,0
103,103,3,0,71,10,3,1,1,0.493,1,0,0,0,666.23,671.644,666723,105,105,219,0
103,103,3,0,72,11,3,0,1,0.377,0,0,0,0,676.975,681.772,677352,106,106,220,0
103,103,3,0,73,12,3,1,0,0.658,0,0,0,0,690.589,696.584,691247,107,107,221,0
103,103,3,0,74,13,3,0,0,0.478,1,0,0,0,700.47,704.986,700948,108,108,222,0
103,103,3,0,75,14,3,1,1,0.438,1,0,0,0,712.059,715.229,712497,109,109,223,0
103,103,3,0,76,15,3,1,1,0.493,1,0,0,0,719.541,724.362,720034,110,110,224,0
103,103,3,0,77,16,3,1,1,0.38,1,0,0,0,728.941,732.521,729321,111,111,225,0
103,103,3,0,78,17,3,0,1,0.524,0,0,0,0,738.125,744.947,738649,112,112,226,0
103,103,3,0,79,18,3,0,0,0.459,1,0,0,0,753.139,759.171,753598,113,113,227,0
103,103,3,0,80,19,3,1,0,0.438,0,0,0,0,761.876,767.334,762314,114,114,228,0
104,104,4,0,1,0,1,-2,-2,NaN,-1,1,1,0,6.45,0,NaN,0,0,0,1
104,104,4,0,2,1,1,1,0,0.475,0,1,0,0,16.731,19.96,17206,1,1,1,1
104,104,4,0,3,2,1,1,0,0.778,0,1,0,0,24.261,30.165,25039,2,2,2,1
104,104,4,0,4,3,1,0,0,1.416,1,1,0,0,33.765,39.964,35181,3,3,3,1
104,104,4,0,5,4,1,1,1,0.667,1,1,0,0,49.761,52.305,50428,4,4,4,1
104,104,4,0,6,5,1,1,0,1.141,0,1,0,0,58.061,62.395,59202,5,5,5,1
104,104,4,0,7,6,1,0,0,1.325,1,1,0,0,66.362,68.794,67687,6,6,6,1
104,104,4,0,8,7,1,1,1,0.438,1,1,0,0,73.207,77.854,73645,7,7,7,1
104,104,4,0,9,8,1,0,1,1.34,0,1,0,0,80.553,85.989,81893,8,8,8,1
104,104,4,0,10,9,1,#NAME?,NaN,NaN,0,1,0,1,88.687,92.946,NaN,9,0,9,1
104,104,4,0,11,10,1,1,0,0.8,0,1,0,0,96.184,99.459,96984,10,9,10,1
104,104,4,0,12,11,1,1,1,0.658,1,1,0,0,104.814,111.383,105472,11,10,11,1
104,104,4,0,13,12,1,0,1,1.472,0,1,0,0,114.274,120.824,115746,12,11,12,1
104,104,4,0,14,13,1,0,1,0.425,0,1,0,0,129.57,135.888,129995,13,12,13,1
104,104,4,0,15,14,1,1,0,0.95,0,1,0,0,140.88,145.099,141830,14,13,14,1
104,104,4,0,16,15,1,1,0,0.637,0,1,0,0,153.546,157.696,154183,15,14,15,1
104,104,4,0,17,16,1,1,1,0.484,1,1,0,0,160.449,165.4,160933,16,15,16,1
104,104,4,0,18,17,1,1,0,0.977,0,1,0,0,171.451,175.349,172428,17,16,17,1
104,104,4,0,19,18,1,0,1,0.504,0,1,0,0,178.149,181.732,178653,18,17,18,1
104,104,4,0,20,19,1,0,1,1.164,0,1,0,0,187.162,194.539,188326,19,18,19,1
104,104,4,0,21,0,1,-2,-2,NaN,-1,0,1,0,198.25,0,NaN,0,0,0,0
104,104,4,0,22,1,1,1,1,1.336,1,0,0,0,205.143,210.159,206479,1,1,20,0
104,104,4,0,23,2,1,0,0,1.032,1,0,0,0,214.712,218.908,215744,2,2,21,0
104,104,4,0,24,3,1,1,1,0.493,1,0,0,0,223.495,227.842,223988,3,3,22,0
104,104,4,0,25,4,1,1,0,0.605,0,0,0,0,233.476,240.804,234081,4,4,23,0
104,104,4,0,26,5,1,1,0,0.617,0,0,0,0,246.846,251.635,247463,5,5,24,0
104,104,4,0,27,6,1,0,0,0.765,1,0,0,0,256.993,262.055,257758,6,6,25,0
104,104,4,0,28,7,1,0,1,0.594,0,0,0,0,265.525,271.896,266119,7,7,26,0
104,104,4,0,29,8,1,1,0,0.497,0,0,0,0,278.675,282.409,279172,8,8,27,0
104,104,4,0,30,9,1,1,1,0.945,1,0,0,0,287.405,291.999,288350,9,9,28,0
104,104,4,0,31,10,1,1,1,0.735,1,0,0,0,296.839,302.091,297574,10,10,29,0
104,104,4,0,32,11,1,0,0,0.693,1,0,0,0,310.382,315.884,311075,11,11,30,0
104,104,4,0,33,12,1,0,1,0.765,0,0,0,0,320.417,323.026,321182,12,12,31,0
104,104,4,0,34,13,1,0,1,0.7,0,0,0,0,328.967,333.945,329667,13,13,32,0
104,104,4,0,35,14,1,0,0,1.563,1,0,0,0,338.616,342.072,340179,14,14,33,0
104,104,4,0,36,15,1,0,1,0.679,0,0,0,0,348.013,353.83,348692,15,15,34,0
104,104,4,0,37,16,1,0,1,0.666,0,0,0,0,356.752,359.965,357418,16,16,35,0
104,104,4,0,38,17,1,0,0,0.668,1,0,0,0,365.223,370.754,365891,17,17,36,0
104,104,4,0,39,18,1,1,1,1.774,1,0,0,0,374.915,378.402,376689,18,18,37,0
104,104,4,0,40,19,1,1,1,0.554,1,0,0,0,385.545,389.067,386099,19,19,38,0
104,104,4,0,41,0,1,-2,-2,NaN,-1,1,1,0,392.51,0,NaN,0,0,0,1
104,104,4,0,42,1,1,1,0,0.935,0,1,0,0,398.699,403.071,399634,20,19,39,1
104,104,4,0,43,2,1,0,0,0.613,1,1,0,0,411.531,417.39,412144,21,20,40,1
104,104,4,0,44,3,1,1,1,0.433,1,1,0,0,426.577,430.178,427010,22,21,41,1
104,104,4,0,45,4,1,0,1,0.55,0,1,0,0,434.073,438.162,434623,23,22,42,1
104,104,4,0,46,5,1,0,1,0.507,0,1,0,0,442.81,446.45,443317,24,23,43,1
104,104,4,0,47,6,1,0,1,0.577,0,1,0,0,451.395,455.221,451972,25,24,44,1
104,104,4,0,48,7,1,0,1,0.485,0,1,0,0,461.397,465.658,461882,26,25,45,1
104,104,4,0,49,8,1,1,0,0.472,0,1,0,0,473.827,481.064,474299,27,26,46,1
104,104,4,0,50,9,1,0,0,0.634,1,1,0,0,484.512,491.782,485146,28,27,47,1
104,104,4,0,51,10,1,1,1,0.448,1,1,0,0,495.919,500.712,496367,29,28,48,1
104,104,4,0,52,11,1,1,1,1.324,1,1,0,0,504.616,508.593,505940,30,29,49,1
104,104,4,0,53,12,1,0,1,0.562,0,1,0,0,512.839,516.516,513401,31,30,50,1
104,104,4,0,54,13,1,0,0,0.637,1,1,0,0,519.213,522.622,519850,32,31,51,1
104,104,4,0,55,14,1,0,0,0.652,1,1,0,0,528.362,531.482,529014,33,32,52,1
104,104,4,0,56,15,1,0,0,1.866,1,1,0,0,534.31,540.946,536176,34,33,53,1
104,104,4,0,57,16,1,1,1,0.473,1,1,0,0,547.076,551.884,547549,35,34,54,1
104,104,4,0,58,17,1,1,0,0.466,0,1,0,0,557.654,561.038,558120,36,35,55,1
104,104,4,0,59,18,1,0,0,1.275,1,1,0,0,569.688,573.672,570963,37,36,56,1
104,104,4,0,60,19,1,1,1,0.82,1,1,0,0,579.024,584.681,579844,38,37,57,1
104,104,4,0,61,0,1,-2,-2,NaN,-1,0,1,0,589.255,0,NaN,0,0,0,0
104,104,4,0,62,1,1,1,1,0.476,1,0,0,0,595.121,600.58,595597,20,20,58,0
104,104,4,0,63,2,1,0,0,0.569,1,0,0,0,604.527,609.116,605096,21,21,59,0
104,104,4,0,64,3,1,1,0,0.439,0,0,0,0,613.144,620.606,613583,22,22,60,0
104,104,4,0,65,4,1,1,0,0.344,0,0,0,0,624.614,629.44,624958,23,23,61,0
104,104,4,0,66,5,1,0,1,0.477,0,0,0,0,637.596,643.693,638073,24,24,62,0
104,104,4,0,67,6,1,1,1,0.474,1,0,0,0,648.319,653.774,648793,25,25,63,0
104,104,4,0,68,7,1,1,1,0.449,1,0,0,0,659.156,661.657,659605,26,26,64,0
104,104,4,0,69,8,1,0,1,0.418,0,0,0,0,665.021,670.566,665439,27,27,65,0
104,104,4,0,70,9,1,0,0,0.554,1,0,0,0,675.263,679.485,675817,28,28,66,0
104,104,4,0,71,10,1,0,0,0.431,1,0,0,0,683.692,688.719,684123,29,29,67,0
104,104,4,0,72,11,1,0,1,0.375,0,0,0,0,692.052,697.106,692427,30,30,68,0
104,104,4,0,73,12,1,1,0,0.336,0,0,0,0,701.889,708.1,702225,31,31,69,0
104,104,4,0,74,13,1,0,1,0.426,0,0,0,0,712.267,714.499,712693,32,32,70,0
104,104,4,0,75,14,1,1,1,0.286,1,0,0,0,719.629,723.433,719915,33,33,71,0
104,104,4,0,76,15,1,1,1,0.811,1,0,0,0,731.525,737.476,732336,34,34,72,0
104,104,4,0,77,16,1,1,0,0.574,0,0,0,0,743.128,746.771,743702,35,35,73,0
104,104,4,0,78,17,1,0,1,0.429,0,0,0,0,750.971,753.716,751400,36,36,74,0
104,104,4,0,79,18,1,0,0,0.45,1,0,0,0,760.434,765.582,760884,37,37,75,0
104,104,4,0,80,19,1,0,1,0.486,0,0,0,0,768.812,772.865,769298,38,38,76,0
104,104,4,0,1,0,2,-2,-2,NaN,-1,1,1,0,4.434,0,NaN,0,0,0,1
104,104,4,0,2,1,2,1,0,0.603,0,1,0,0,16.017,21.301,16620,39,38,77,1
104,104,4,0,3,2,2,0,0,0.391,1,1,0,0,26.883,31.022,27274,40,39,78,1
104,104,4,0,4,3,2,1,1,0.605,1,1,0,0,35.886,42.074,36491,41,40,79,1
104,104,4,0,5,4,2,1,1,0.412,1,1,0,0,47.86,51.964,48272,42,41,80,1
104,104,4,0,6,5,2,1,0,0.947,0,1,0,0,58.564,61.971,59511,43,42,81,1
104,104,4,0,7,6,2,1,0,1.157,0,1,0,0,66.824,74.831,67981,44,43,82,1
104,104,4,0,8,7,2,0,0,1.233,1,1,0,0,77.599,80.536,78832,45,44,83,1
104,104,4,0,9,8,2,1,1,0.417,1,1,0,0,83.711,89.168,84128,46,45,84,1
104,104,4,0,10,9,2,0,0,0.743,1,1,0,0,91.858,95.527,92601,47,46,85,1
104,104,4,0,11,10,2,0,0,0.664,1,1,0,0,100.367,105.374,101031,48,47,86,1
104,104,4,0,12,11,2,1,1,0.696,1,1,0,0,111.076,120.107,111772,49,48,87,1
104,104,4,0,13,12,2,1,0,0.633,0,1,0,0,123.802,126.876,124435,50,49,88,1
104,104,4,0,14,13,2,1,1,0.478,1,1,0,0,130.896,134.654,131374,51,50,89,1
104,104,4,0,15,14,2,0,1,0.608,0,1,0,0,141.903,146.38,142511,52,51,90,1
104,104,4,0,16,15,2,1,0,1.041,0,1,0,0,149.28,155.072,150321,53,52,91,1
104,104,4,0,17,16,2,1,1,0.705,1,1,0,0,158.089,161.678,158794,54,53,92,1
104,104,4,0,18,17,2,0,0,1.11,1,1,0,0,165.531,171.26,166641,55,54,93,1
104,104,4,0,19,18,2,1,1,1.649,1,1,0,0,176.46,180.529,178109,56,55,94,1
104,104,4,0,20,19,2,0,1,1.031,0,1,0,0,183.23,186.819,184261,57,56,95,1
104,104,4,0,21,0,2,-2,-2,NaN,-1,0,1,0,191.453,0,NaN,0,0,0,0
104,104,4,0,22,1,2,1,0,0.622,0,0,0,0,200.02,207.232,200642,39,39,96,0
104,104,4,0,23,2,2,0,0,0.864,1,0,0,0,211.208,214.953,212072,40,40,97,0
104,104,4,0,24,3,2,1,1,1.396,1,0,0,0,222.169,225.564,223565,41,41,98,0
104,104,4,0,25,4,2,0,1,0.886,0,0,0,0,230.026,233.198,230912,42,42,99,0
104,104,4,0,26,5,2,0,1,0.451,0,0,0,0,236.899,243.789,237350,43,43,100,0
104,104,4,0,27,6,2,1,1,0.507,1,0,0,0,247.632,251.196,248139,44,44,101,0
104,104,4,0,28,7,2,0,0,0.445,1,0,0,0,259.057,265.772,259502,45,45,102,0
104,104,4,0,29,8,2,0,1,0.571,0,0,0,0,270.152,275.893,270723,46,46,103,0
104,104,4,0,30,9,2,0,1,0.377,0,0,0,0,281.89,285.079,282267,47,47,104,0
104,104,4,0,31,10,2,0,0,0.501,1,0,0,0,291.855,294.446,292356,48,48,105,0
104,104,4,0,32,11,2,1,1,0.373,1,0,0,0,298.658,302.582,299031,49,49,106,0
104,104,4,0,33,12,2,0,1,0.439,0,0,0,0,310.431,315.355,310870,50,50,107,0
104,104,4,0,34,13,2,1,0,0.763,0,0,0,0,320.947,327.765,321710,51,51,108,0
104,104,4,0,35,14,2,0,0,0.727,1,0,0,0,331.745,336.455,332472,52,52,109,0
104,104,4,0,36,15,2,0,0,0.832,1,0,0,0,339.153,346.972,339985,53,53,110,0
104,104,4,0,37,16,2,0,1,0.624,0,0,0,0,349.839,352.903,350463,54,54,111,0
104,104,4,0,38,17,2,0,1,0.345,0,0,0,0,357.51,360.393,357855,55,55,112,0
104,104,4,0,39,18,2,1,1,0.97,1,0,0,0,363.09,366.332,364060,56,56,113,0
104,104,4,0,40,19,2,1,1,0.429,1,0,0,0,370.716,373.772,371145,57,57,114,0
104,104,4,0,41,0,2,-2,-2,NaN,-1,1,1,0,378.281,0,NaN,0,0,0,1
104,104,4,0,42,1,2,1,0,0.752,0,1,0,0,386.419,389.211,387171,58,57,115,1
104,104,4,0,43,2,2,1,1,0.551,1,1,0,0,393.831,398.951,394382,59,58,116,1
104,104,4,0,44,3,2,0,1,0.33,0,1,0,0,404.13,407.839,404460,60,59,117,1
104,104,4,0,45,4,2,0,1,0.36,0,1,0,0,411.579,415.272,411939,61,60,118,1
104,104,4,0,46,5,2,0,1,0.658,0,1,0,0,420.395,426.306,421053,62,61,119,1
104,104,4,0,47,6,2,0,1,0.504,0,1,0,0,429.703,433.836,430207,63,62,120,1
104,104,4,0,48,7,2,0,1,0.326,0,1,0,0,437.499,443.579,437825,64,63,121,1
104,104,4,0,49,8,2,1,0,0.384,0,1,0,0,447.41,450.912,447794,65,64,122,1
104,104,4,0,50,9,2,0,1,0.433,0,1,0,0,454.638,458.654,455071,66,65,123,1
104,104,4,0,51,10,2,1,0,1.687,0,1,0,0,462.856,472.07,464543,67,66,124,1
104,104,4,0,52,11,2,0,0,0.347,1,1,0,0,477.558,480.817,477905,68,67,125,1
104,104,4,0,53,12,2,1,1,0.413,1,1,0,0,484.858,488.18,485271,69,68,126,1
104,104,4,0,54,13,2,1,1,0.414,1,1,0,0,492.469,499.736,492883,70,69,127,1
104,104,4,0,55,14,2,0,1,1.171,0,1,0,0,505.011,508.847,506182,71,70,128,1
104,104,4,0,56,15,2,1,0,0.472,0,1,0,0,512.982,517.705,513454,72,71,129,1
104,104,4,0,57,16,2,1,0,0.715,0,1,0,0,524.23,530.399,524945,73,72,130,1
104,104,4,0,58,17,2,1,1,1.022,1,1,0,0,533.814,538.729,534836,74,73,131,1
104,104,4,0,59,18,2,0,1,0.671,0,1,0,0,541.854,546.226,542525,75,74,132,1
104,104,4,0,60,19,2,0,1,0.485,0,1,0,0,549.382,554.531,549867,76,75,133,1
104,104,4,0,61,0,2,-2,-2,NaN,-1,0,1,0,560.061,0,NaN,0,0,0,0
104,104,4,0,62,1,2,0,1,0.267,0,0,0,0,570.045,574.581,570312,58,58,134,0
104,104,4,0,63,2,2,0,0,0.363,1,0,0,0,579.135,582.974,579498,59,59,135,0
104,104,4,0,64,3,2,0,0,0.448,1,0,0,0,591.77,596.911,592218,60,60,136,0
104,104,4,0,65,4,2,0,1,0.353,0,0,0,0,602.514,607.064,602867,61,61,137,0
104,104,4,0,66,5,2,1,0,0.403,0,0,0,0,613.058,621.999,613461,62,62,138,0
104,104,4,0,67,6,2,1,1,0.399,1,0,0,0,629.431,634.857,629830,63,63,139,0
104,104,4,0,68,7,2,0,0,0.555,1,0,0,0,642.094,647.636,642649,64,64,140,0
104,104,4,0,69,8,2,0,1,0.278,0,0,0,0,653.297,657.755,653575,65,65,141,0
104,104,4,0,70,9,2,0,1,0.53,0,0,0,0,663.75,669.779,664280,66,66,142,0
104,104,4,0,71,10,2,0,0,0.714,1,0,0,0,672.692,681.252,673406,67,67,143,0
104,104,4,0,72,11,2,1,1,0.474,1,0,0,0,684.317,687.836,684791,68,68,144,0
104,104,4,0,73,12,2,0,1,0.582,0,0,0,0,691.364,697.531,691946,69,69,145,0
104,104,4,0,74,13,2,1,0,0.44,0,0,0,0,701.56,709.368,702000,70,70,146,0
104,104,4,0,75,14,2,1,1,0.339,1,0,0,0,712.068,716.508,712407,71,71,147,0
104,104,4,0,76,15,2,0,0,0.939,1,0,0,0,721.548,726.776,722487,72,72,148,0
104,104,4,0,77,16,2,1,0,1.246,0,0,0,0,731.339,737.591,732585,73,73,149,0
104,104,4,0,78,17,2,1,0,0.398,0,0,0,0,743.792,747.784,744190,74,74,150,0
104,104,4,0,79,18,2,0,1,0.533,0,0,0,0,754.184,757.791,754717,75,75,151,0
104,104,4,0,80,19,2,1,1,0.409,1,0,0,0,763.687,769.739,764096,76,76,152,0
104,104,4,0,1,0,3,-2,-2,NaN,-1,1,1,0,3.927,0,NaN,0,0,0,1
104,104,4,0,2,1,3,0,0,0.407,1,1,0,0,15.077,19.865,15484,77,76,153,1
104,104,4,0,3,2,3,1,1,0.309,1,1,0,0,26.262,30.277,26571,78,77,154,1
104,104,4,0,4,3,3,1,0,0.546,0,1,0,0,32.97,37.406,33516,79,78,155,1
104,104,4,0,5,4,3,0,0,0.328,1,1,0,0,40.658,48.641,40986,80,79,156,1
104,104,4,0,6,5,3,1,1,0.556,1,1,0,0,52.199,57.567,52755,81,80,157,1
104,104,4,0,7,6,3,0,1,0.417,0,1,0,0,62.631,68.478,63048,82,81,158,1
104,104,4,0,8,7,3,1,0,0.463,0,1,0,0,74.42,78.239,74883,83,82,159,1
104,104,4,0,9,8,3,1,1,0.481,1,1,0,0,83.443,88.75,83924,84,83,160,1
104,104,4,0,10,9,3,1,0,1.232,0,1,0,0,93.059,99.561,94291,85,84,161,1
104,104,4,0,11,10,3,1,1,0.571,1,1,0,0,106.848,116.237,107419,86,85,162,1
104,104,4,0,12,11,3,0,1,0.5,0,1,0,0,120.406,123.826,120906,87,86,163,1
104,104,4,0,13,12,3,0,1,0.395,0,1,0,0,130.44,133.207,130835,88,87,164,1
104,104,4,0,14,13,3,1,0,0.551,0,1,0,0,137.05,140.145,137601,89,88,165,1
104,104,4,0,15,14,3,0,1,0.301,0,1,0,0,144.495,147.668,144796,90,89,166,1
104,104,4,0,16,15,3,0,0,0.455,1,1,0,0,153.266,157.667,153721,91,90,167,1
104,104,4,0,17,16,3,1,1,0.377,1,1,0,0,161.252,168.577,161629,92,91,168,1
104,104,4,0,18,17,3,0,1,0.628,0,1,0,0,172.164,175.641,172792,93,92,169,1
104,104,4,0,19,18,3,1,0,0.444,0,1,0,0,180.24,187.444,180684,94,93,170,1
104,104,4,0,20,19,3,1,0,0.701,0,1,0,0,192.641,195.994,193342,95,94,171,1
104,104,4,0,21,0,3,-2,-2,NaN,-1,0,1,0,200.361,0,NaN,0,0,0,0
104,104,4,0,22,1,3,1,1,1.324,1,0,0,0,208.381,212.551,209705,77,77,172,0
104,104,4,0,23,2,3,0,1,0.895,0,0,0,0,215.412,218.012,216307,78,78,173,0
104,104,4,0,24,3,3,0,1,0.323,0,0,0,0,221.034,226.879,221357,79,79,174,0
104,104,4,0,25,4,3,0,0,0.367,1,0,0,0,233.778,238.357,234145,80,80,175,0
104,104,4,0,26,5,3,1,1,0.314,1,0,0,0,243.873,248.34,244187,81,81,176,0
104,104,4,0,27,6,3,0,1,0.374,0,0,0,0,252.203,255.573,252577,82,82,177,0
104,104,4,0,28,7,3,1,0,0.42,0,0,0,0,261.359,264.201,261779,83,83,178,0
104,104,4,0,29,8,3,0,0,0.511,1,0,0,0,267.144,269.476,267655,84,84,179,0
104,104,4,0,30,9,3,1,1,0.362,1,0,0,0,272.366,275.413,272728,85,85,180,0
104,104,4,0,31,10,3,0,1,0.343,0,0,0,0,280.94,283.857,281283,86,86,181,0
104,104,4,0,32,11,3,0,0,0.625,1,0,0,0,286.678,292.172,287303,87,87,182,0
104,104,4,0,33,12,3,1,1,0.449,1,0,0,0,298.411,304.568,298860,88,88,183,0
104,104,4,0,34,13,3,0,0,0.658,1,0,0,0,307.62,314.106,308278,89,89,184,0
104,104,4,0,35,14,3,1,0,0.469,0,0,0,0,319.046,323.304,319515,90,90,185,0
104,104,4,0,36,15,3,0,1,0.44,0,0,0,0,327.466,331.978,327906,91,91,186,0
104,104,4,0,37,16,3,1,1,0.492,1,0,0,0,339.717,345.251,340209,92,92,187,0
104,104,4,0,38,17,3,0,0,1.072,1,0,0,0,351.393,357.95,352465,93,93,188,0
104,104,4,0,39,18,3,0,1,0.68,0,0,0,0,363.095,367.427,363775,94,94,189,0
104,104,4,0,40,19,3,1,1,0.399,1,0,0,0,371.657,378.751,372056,95,95,190,0
104,104,4,0,41,0,3,-2,-2,NaN,-1,1,1,0,382.397,0,NaN,0,0,0,1
104,104,4,0,42,1,3,0,0,0.545,1,1,0,0,389.628,392.427,390173,96,95,191,1
104,104,4,0,43,2,3,1,1,0.381,1,1,0,0,397.299,400.035,397680,97,96,192,1
104,104,4,0,44,3,3,0,1,0.341,0,1,0,0,403.519,410.427,403860,98,97,193,1
104,104,4,0,45,4,3,0,0,0.438,1,1,0,0,413.728,419.187,414166,99,98,194,1
104,104,4,0,46,5,3,1,1,0.331,1,1,0,0,422.827,425.898,423158,100,99,195,1
104,104,4,0,47,6,3,1,0,0.377,0,1,0,0,431.63,435.978,432007,101,100,196,1
104,104,4,0,48,7,3,1,0,0.476,0,1,0,0,439.349,446.627,439825,102,101,197,1
104,104,4,0,49,8,3,1,1,0.312,1,1,0,0,453.388,456.944,453700,103,102,198,1
104,104,4,0,50,9,3,0,1,0.638,0,1,0,0,462.38,468.734,463018,104,103,199,1
104,104,4,0,51,10,3,1,0,0.457,0,1,0,0,471.424,479.688,471881,105,104,200,1
104,104,4,0,52,11,3,0,0,0.398,1,1,0,0,485.432,490.452,485830,106,105,201,1
104,104,4,0,53,12,3,1,1,0.525,1,1,0,0,495.748,499.284,496273,107,106,202,1
104,104,4,0,54,13,3,1,0,0.971,0,1,0,0,502.2,505.721,503171,108,107,203,1
104,104,4,0,55,14,3,0,0,0.409,1,1,0,0,508.835,512.798,509244,109,108,204,1
104,104,4,0,56,15,3,1,1,0.341,1,1,0,0,519.027,522.971,519368,110,109,205,1
104,104,4,0,57,16,3,1,0,0.551,0,1,0,0,528.675,532.962,529226,111,110,206,1
104,104,4,0,58,17,3,0,0,0.649,1,1,0,0,536.07,544.835,536719,112,111,207,1
104,104,4,0,59,18,3,1,1,0.62,1,1,0,0,547.805,551.674,548425,113,112,208,1
104,104,4,0,60,19,3,0,1,0.55,0,1,0,0,556.307,560.038,556857,114,113,209,1
104,104,4,0,61,0,3,-2,-2,NaN,-1,0,1,0,562.688,0,NaN,0,0,0,0
104,104,4,0,62,1,3,0,0,0.487,1,0,0,0,573.355,581.429,573842,96,96,210,0
104,104,4,0,63,2,3,0,0,0.361,1,0,0,0,587.634,592.929,587995,97,97,211,0
104,104,4,0,64,3,3,0,1,0.625,0,0,0,0,600.674,604.052,601299,98,98,212,0
104,104,4,0,65,4,3,#NAME?,NaN,NaN,1,0,0,1,610.594,613.744,NaN,99,0,213,0
104,104,4,0,66,5,3,#NAME?,NaN,NaN,0,0,0,1,617.594,624.192,NaN,100,0,214,0
104,104,4,0,67,6,3,1,0,0.256,0,0,0,0,629.827,635.984,630083,101,99,215,0
104,104,4,0,68,7,3,1,1,0.464,1,0,0,0,641.331,644.746,641795,102,100,216,0
104,104,4,0,69,8,3,1,1,0.347,1,0,0,0,649.995,653.793,650342,103,101,217,0
104,104,4,0,70,9,3,0,0,0.571,1,0,0,0,659.713,666.919,660284,104,102,218,0
104,104,4,0,71,10,3,0,0,0.569,1,0,0,0,671.272,678.879,671841,105,103,219,0
104,104,4,0,72,11,3,0,1,0.389,0,0,0,0,686.097,689.632,686486,106,104,220,0
104,104,4,0,73,12,3,1,0,0.586,0,0,0,0,699.19,706.933,699776,107,105,221,0
104,104,4,0,74,13,3,1,1,0.389,1,0,0,0,712.946,717.489,713335,108,106,222,0
104,104,4,0,75,14,3,1,1,0.496,1,0,0,0,721.492,725.846,721988,109,107,223,0
104,104,4,0,76,15,3,0,0,0.417,1,0,0,0,730.461,734.686,730878,110,108,224,0
104,104,4,0,77,16,3,0,0,0.29,1,0,0,0,740.25,743.895,740540,111,109,225,0
104,104,4,0,78,17,3,0,1,0.368,0,0,0,0,748.739,752.705,749107,112,110,226,0
104,104,4,0,79,18,3,1,1,0.545,1,0,0,0,756.926,763.711,757471,113,111,227,0
104,104,4,0,80,19,3,1,0,0.307,0,0,0,0,768.118,770.972,768425,114,112,228,0
106,106,6,0,1,0,1,-2,-2,NaN,-1,1,1,0,9.736,0,NaN,0,0,0,1
106,106,6,0,2,1,1,0,1,0.921,0,1,0,0,20.884,26.596,21805,1,1,1,1
106,106,6,0,3,2,1,0,1,0.675,0,1,0,0,29.91,34.766,30585,2,2,2,1
106,106,6,0,4,3,1,0,1,1.076,0,1,0,0,38.593,42.631,39669,3,3,3,1
106,106,6,0,5,4,1,1,0,0.748,0,1,0,0,48.502,51.584,49250,4,4,4,1
106,106,6,0,6,5,1,1,0,1.352,0,1,0,0,56.15,61.677,57502,5,5,5,1
106,106,6,0,7,6,1,0,0,0.741,1,1,0,0,67.24,73.831,67981,6,6,6,1
106,106,6,0,8,7,1,1,1,0.654,1,1,0,0,80.212,83.793,80866,7,7,7,1
106,106,6,0,9,8,1,0,1,1.18,0,1,0,0,89.303,94.054,90483,8,8,8,1
106,106,6,0,10,9,1,1,0,0.964,0,1,0,0,98.057,102.573,99021,9,9,9,1
106,106,6,0,11,10,1,1,0,0.846,0,1,0,0,110.374,118.227,111220,10,10,10,1
106,106,6,0,12,11,1,0,0,0.506,1,1,0,0,122.022,127.771,122528,11,11,11,1
106,106,6,0,13,12,1,0,1,1.517,0,1,0,0,134.602,138.608,136119,12,12,12,1
106,106,6,0,14,13,1,1,0,1.179,0,1,0,0,142.018,147.892,143197,13,13,13,1
106,106,6,0,15,14,1,1,1,0.377,1,1,0,0,152.33,156.614,152707,14,14,14,1
106,106,6,0,16,15,1,0,1,0.714,0,1,0,0,160.32,165.548,161034,15,15,15,1
106,106,6,0,17,16,1,1,0,1.08,0,1,0,0,168.247,171.046,169327,16,16,16,1
106,106,6,0,18,17,1,0,0,0.424,1,1,0,0,175.227,181.355,175651,17,17,17,1
106,106,6,0,19,18,1,0,1,1.45,0,1,0,0,184.556,188.001,186006,18,18,18,1
106,106,6,0,20,19,1,1,0,0.509,0,1,0,0,191.737,199.401,192246,19,19,19,1
106,106,6,0,21,0,1,-2,-2,NaN,-1,0,1,0,202.627,0,NaN,0,0,0,0
106,106,6,0,22,1,1,0,0,0.528,1,0,0,0,212.058,216.698,212586,1,1,20,0
106,106,6,0,23,2,1,1,1,1.1,1,0,0,0,221.235,229.251,222335,2,2,21,0
106,106,6,0,24,3,1,0,0,0.494,1,0,0,0,233.746,237.809,234240,3,3,22,0
106,106,6,0,25,4,1,1,0,1.23,0,0,0,0,242.7,246.203,243930,4,4,23,0
106,106,6,0,26,5,1,1,0,1.404,0,0,0,0,251.733,256.386,253137,5,5,24,0
106,106,6,0,27,6,1,0,0,1.439,1,0,0,0,263.238,268.033,264677,6,6,25,0
106,106,6,0,28,7,1,0,1,0.866,0,0,0,0,274.066,279.166,274932,7,7,26,0
106,106,6,0,29,8,1,0,1,1.186,0,0,0,0,283.341,286.238,284527,8,8,27,0
106,106,6,0,30,9,1,0,0,0.602,1,0,0,0,290.347,294.564,290949,9,9,28,0
106,106,6,0,31,10,1,1,1,0.461,1,0,0,0,299.932,304.12,300393,10,10,29,0
106,106,6,0,32,11,1,#NAME?,NaN,NaN,1,0,0,1,312.232,318.599,NaN,11,0,30,0
106,106,6,0,33,12,1,0,1,0.72,0,0,0,0,323.056,326.579,323776,12,11,31,0
106,106,6,0,34,13,1,1,0,1.75,0,0,0,0,329.272,332.178,331022,13,12,32,0
106,106,6,0,35,14,1,0,0,0.42,1,0,0,0,337.253,342.328,337673,14,13,33,0
106,106,6,0,36,15,1,0,1,0.672,0,0,0,0,348.977,355.64,349649,15,14,34,0
106,106,6,0,37,16,1,0,1,0.895,0,0,0,0,359.989,364.909,360884,16,15,35,0
106,106,6,0,38,17,1,#NAME?,NaN,NaN,1,0,0,1,369.411,376.951,NaN,17,0,36,0
106,106,6,0,39,18,1,1,1,0.647,1,0,0,0,380.629,384.726,381276,18,16,37,0
106,106,6,0,40,19,1,1,1,0.877,1,0,0,0,390.463,396.258,391340,19,17,38,0
106,106,6,0,41,0,1,-2,-2,NaN,-1,1,1,0,401.449,0,NaN,0,0,0,1
106,106,6,0,42,1,1,1,0,1.015,0,1,0,0,411.879,414.728,412894,20,20,39,1
106,106,6,0,43,2,1,0,0,0.403,1,1,0,0,422.212,425.999,422615,21,21,40,1
106,106,6,0,44,3,1,1,1,0.489,1,1,0,0,430.149,437.137,430638,22,22,41,1
106,106,6,0,45,4,1,0,1,0.851,0,1,0,0,440.71,442.96,441561,23,23,42,1
106,106,6,0,46,5,1,#NAME?,NaN,NaN,0,1,0,1,446.753,450.809,NaN,24,0,43,1
106,106,6,0,47,6,1,1,0,0.639,0,1,0,0,456.841,462.228,457480,25,24,44,1
106,106,6,0,48,7,1,1,0,1.402,0,1,0,0,466.741,470.706,468143,26,25,45,1
106,106,6,0,49,8,1,0,0,0.448,1,1,0,0,475.428,478.747,475876,27,26,46,1
106,106,6,0,50,9,1,1,1,1.345,1,1,0,0,483.273,488.25,484618,28,27,47,1
106,106,6,0,51,10,1,0,1,0.968,0,1,0,0,492.088,494.318,493056,29,28,48,1
106,106,6,0,52,11,1,1,0,0.485,0,1,0,0,499.082,502.667,499567,30,29,49,1
106,106,6,0,53,12,1,0,1,0.353,0,1,0,0,509.664,511.992,510017,31,30,50,1
106,106,6,0,54,13,1,1,1,0.38,1,1,0,0,516.452,523.878,516832,32,31,51,1
106,106,6,0,55,14,1,0,1,0.481,0,1,0,0,528.506,535.247,528987,33,32,52,1
106,106,6,0,56,15,1,1,0,0.521,0,1,0,0,539.118,544.908,539639,34,33,53,1
106,106,6,0,57,16,1,0,0,0.624,1,1,0,0,548.152,551.814,548776,35,34,54,1
106,106,6,0,58,17,1,1,1,0.651,1,1,0,0,555.284,561.143,555935,36,35,55,1
106,106,6,0,59,18,1,1,0,0.458,0,1,0,0,564.75,568.173,565208,37,36,56,1
106,106,6,0,60,19,1,0,0,0.401,1,1,0,0,571.725,575.658,572126,38,37,57,1
106,106,6,0,61,0,1,-2,-2,NaN,-1,0,1,0,581.624,0,NaN,0,0,0,0
106,106,6,0,62,1,1,1,1,0.609,1,0,0,0,589.314,592.48,589923,20,18,58,0
106,106,6,0,63,2,1,0,0,0.379,1,0,0,0,596.77,602.939,597149,21,19,59,0
106,106,6,0,64,3,1,1,0,0.509,0,0,0,0,607.806,612.017,608315,22,20,60,0
106,106,6,0,65,4,1,1,0,0.642,0,0,0,0,615.241,620.104,615883,23,21,61,0
106,106,6,0,66,5,1,0,1,0.37,0,0,0,0,623.986,628.339,624356,24,22,62,0
106,106,6,0,67,6,1,1,1,1.958,1,0,0,0,634.16,638.784,636118,25,23,63,0
106,106,6,0,68,7,1,1,1,0.44,1,0,0,0,645.828,650.735,646268,26,24,64,0
106,106,6,0,69,8,1,1,0,0.44,0,0,0,0,656.481,661.331,656921,27,25,65,0
106,106,6,0,70,9,1,0,0,0.438,1,0,0,0,665.777,672.53,666215,28,26,66,0
106,106,6,0,71,10,1,1,1,1.921,1,0,0,0,676.583,679.775,678504,29,27,67,0
106,106,6,0,72,11,1,1,0,0.664,0,0,0,0,682.469,688.244,683133,30,28,68,0
106,106,6,0,73,12,1,1,0,0.594,0,0,0,0,693.151,697.041,693745,31,29,69,0
106,106,6,0,74,13,1,1,0,0.48,0,0,0,0,700.216,703.66,700696,32,30,70,0
106,106,6,0,75,14,1,0,0,0.549,1,0,0,0,713.114,717.42,713663,33,31,71,0
106,106,6,0,76,15,1,1,1,0.473,1,0,0,0,726.861,731.342,727334,34,32,72,0
106,106,6,0,77,16,1,1,0,0.507,0,0,0,0,736.284,739.307,736791,35,33,73,0
106,106,6,0,78,17,1,0,1,0.431,0,0,0,0,744.088,747.543,744519,36,34,74,0
106,106,6,0,79,18,1,1,1,0.921,1,0,0,0,751.285,755.927,752206,37,35,75,0
106,106,6,0,80,19,1,0,1,1.171,0,0,0,0,759.646,764.761,760817,38,36,76,0
106,106,6,0,1,0,2,-2,-2,NaN,-1,1,1,0,5.939,0,NaN,0,0,0,1
106,106,6,0,2,1,2,0,1,1.272,0,1,0,0,13.856,21.372,15128,39,38,77,1
106,106,6,0,3,2,2,0,0,1.286,1,1,0,0,25.2,29.55,26486,40,39,78,1
106,106,6,0,4,3,2,0,0,0.452,1,1,0,0,37.65,41.353,38102,41,40,79,1
106,106,6,0,5,4,2,0,0,0.556,1,1,0,0,47.517,50.222,48073,42,41,80,1
106,106,6,0,6,5,2,0,0,0.83,1,1,0,0,53.795,58.26,54625,43,42,81,1
106,106,6,0,7,6,2,0,0,0.553,1,1,0,0,62.888,65.607,63441,44,43,82,1
106,106,6,0,8,7,2,0,0,0.463,1,1,0,0,72.023,76.521,72486,45,44,83,1
106,106,6,0,9,8,2,1,1,0.781,1,1,0,0,79.215,85.7,79996,46,45,84,1
106,106,6,0,10,9,2,1,1,0.732,1,1,0,0,91.585,96.543,92317,47,46,85,1
106,106,6,0,11,10,2,0,1,0.536,0,1,0,0,100.808,107.611,101344,48,47,86,1
106,106,6,0,12,11,2,0,1,0.408,0,1,0,0,111.648,114.751,112056,49,48,87,1
106,106,6,0,13,12,2,1,0,0.419,0,1,0,0,119.93,124.372,120349,50,49,88,1
106,106,6,0,14,13,2,0,0,0.441,1,1,0,0,128.459,133.013,128900,51,50,89,1
106,106,6,0,15,14,2,1,1,0.378,1,1,0,0,137.414,142.621,137792,52,51,90,1
106,106,6,0,16,15,2,0,1,0.388,0,1,0,0,147.423,151.431,147811,53,52,91,1
106,106,6,0,17,16,2,1,0,0.477,0,1,0,0,157.358,162.832,157835,54,53,92,1
106,106,6,0,18,17,2,0,0,0.63,1,1,0,0,165.959,169.248,166589,55,54,93,1
106,106,6,0,19,18,2,1,1,0.549,1,1,0,0,174.302,177.435,174851,56,55,94,1
106,106,6,0,20,19,2,0,1,0.45,0,1,0,0,182.453,186.527,182903,57,56,95,1
106,106,6,0,21,0,2,-2,-2,NaN,-1,0,1,0,191.296,0,NaN,0,0,0,0
106,106,6,0,22,1,2,0,1,0.611,0,0,0,0,199.087,204.147,199698,39,37,96,0
106,106,6,0,23,2,2,1,1,0.79,1,0,0,0,208.345,215.089,209135,40,38,97,0
106,106,6,0,24,3,2,1,1,1.198,1,0,0,0,219.843,222.326,221041,41,39,98,0
106,106,6,0,25,4,2,0,1,0.555,0,0,0,0,228.769,232.838,229324,42,40,99,0
106,106,6,0,26,5,2,0,1,0.682,0,0,0,0,236.309,240.628,236991,43,41,100,0
106,106,6,0,27,6,2,1,1,0.513,1,0,0,0,245.664,250.529,246177,44,42,101,0
106,106,6,0,28,7,2,1,1,1.203,1,0,0,0,258.158,264.224,259361,45,43,102,0
106,106,6,0,29,8,2,1,0,0.388,0,0,0,0,268.696,273.039,269084,46,44,103,0
106,106,6,0,30,9,2,1,0,0.508,0,0,0,0,276.79,280.504,277298,47,45,104,0
106,106,6,0,31,10,2,1,1,0.426,1,0,0,0,284.347,287.171,284773,48,46,105,0
106,106,6,0,32,11,2,1,1,0.414,1,0,0,0,291.188,295.308,291602,49,47,106,0
106,106,6,0,33,12,2,1,0,0.605,0,0,0,0,298.006,305.412,298611,50,48,107,0
106,106,6,0,34,13,2,1,0,0.404,0,0,0,0,311.266,315.898,311670,51,49,108,0
106,106,6,0,35,14,2,1,1,0.563,1,0,0,0,320.153,323.473,320716,52,50,109,0
106,106,6,0,36,15,2,1,1,0.456,1,0,0,0,327.302,333.343,327758,53,51,110,0
106,106,6,0,37,16,2,1,0,1.132,0,0,0,0,337.395,342.632,338527,54,52,111,0
106,106,6,0,38,17,2,1,0,0.462,0,0,0,0,349.142,355.031,349604,55,53,112,0
106,106,6,0,39,18,2,1,1,0.612,1,0,0,0,359.713,363.97,360325,56,54,113,0
106,106,6,0,40,19,2,1,1,0.577,1,0,0,0,372.042,378.789,372619,57,55,114,0
106,106,6,0,41,0,2,-2,-2,NaN,-1,1,1,0,385.122,0,NaN,0,0,0,1
106,106,6,0,42,1,2,1,0,0.654,0,1,0,0,394.953,398.075,395607,58,57,115,1
106,106,6,0,43,2,2,1,1,0.497,1,1,0,0,400.778,405.239,401275,59,58,116,1
106,106,6,0,44,3,2,0,1,0.416,0,1,0,0,409.526,416.499,409942,60,59,117,1
106,106,6,0,45,4,2,0,1,1.508,0,1,0,0,421.74,426.893,423248,61,60,118,1
106,106,6,0,46,5,2,1,0,0.495,0,1,0,0,433.015,435.794,433510,62,61,119,1
106,106,6,0,47,6,2,1,1,0.568,1,1,0,0,438.49,444.78,439058,63,62,120,1
106,106,6,0,48,7,2,#NAME?,NaN,NaN,0,1,0,1,447.488,451.201,NaN,64,0,121,1
106,106,6,0,49,8,2,0,1,0.293,0,1,0,0,455.915,460.288,456208,65,63,122,1
106,106,6,0,50,9,2,1,0,0.443,0,1,0,0,464.618,471.481,465061,66,64,123,1
106,106,6,0,51,10,2,0,0,0.538,1,1,0,0,475.933,479.391,476471,67,65,124,1
106,106,6,0,52,11,2,#NAME?,NaN,NaN,1,1,0,1,483.397,489.67,NaN,68,0,125,1
106,106,6,0,53,12,2,1,1,0.371,1,1,0,0,494.94,502.011,495311,69,66,126,1
106,106,6,0,54,13,2,1,1,0.497,1,1,0,0,509.242,513.509,509739,70,67,127,1
106,106,6,0,55,14,2,1,0,0.601,0,1,0,0,518.667,522.136,519268,71,68,128,1
106,106,6,0,56,15,2,0,0,0.456,1,1,0,0,530.08,534.925,530536,72,69,129,1
106,106,6,0,57,16,2,1,1,0.44,1,1,0,0,538.827,544.727,539267,73,70,130,1
106,106,6,0,58,17,2,1,1,0.48,1,1,0,0,547.504,552.089,547984,74,71,131,1
106,106,6,0,59,18,2,0,1,0.501,0,1,0,0,555.121,559.62,555622,75,72,132,1
106,106,6,0,60,19,2,1,0,0.497,0,1,0,0,563.363,568.201,563860,76,73,133,1
106,106,6,0,61,0,2,-2,-2,NaN,-1,0,1,0,571.176,0,NaN,0,0,0,0
106,106,6,0,62,1,2,1,0,0.512,0,0,0,0,579.054,582.086,579566,58,56,134,0
106,106,6,0,63,2,2,0,0,0.434,1,0,0,0,590.882,596.311,591316,59,57,135,0
106,106,6,0,64,3,2,1,1,0.503,1,0,0,0,602.372,607.743,602875,60,58,136,0
106,106,6,0,65,4,2,1,0,0.466,0,0,0,0,613.25,619.188,613716,61,59,137,0
106,106,6,0,66,5,2,1,0,0.437,0,0,0,0,625.089,628.671,625526,62,60,138,0
106,106,6,0,67,6,2,1,1,0.547,1,0,0,0,633.895,641.121,634442,63,61,139,0
106,106,6,0,68,7,2,1,1,0.51,1,0,0,0,650.331,654.154,650841,64,62,140,0
106,106,6,0,69,8,2,1,0,1.929,0,0,0,0,656.859,661.194,658788,65,63,141,0
106,106,6,0,70,9,2,1,0,0.394,0,0,0,0,665.15,670.158,665544,66,64,142,0
106,106,6,0,71,10,2,1,1,0.387,1,0,0,0,674.316,682.874,674703,67,65,143,0
106,106,6,0,72,11,2,1,1,0.434,1,0,0,0,688.795,693.144,689229,68,66,144,0
106,106,6,0,73,12,2,1,0,0.631,0,0,0,0,698.324,701.724,698955,69,67,145,0
106,106,6,0,74,13,2,1,0,0.463,0,0,0,0,705.43,709.321,705893,70,68,146,0
106,106,6,0,75,14,2,1,1,0.333,1,0,0,0,715.206,718.687,715539,71,69,147,0
106,106,6,0,76,15,2,1,1,0.466,1,0,0,0,724.18,731.366,724646,72,70,148,0
106,106,6,0,77,16,2,1,0,0.48,0,0,0,0,737.054,740.056,737534,73,71,149,0
106,106,6,0,78,17,2,1,0,0.504,0,0,0,0,745.117,751.251,745621,74,72,150,0
106,106,6,0,79,18,2,0,1,0.427,0,0,0,0,754.607,762.11,755034,75,73,151,0
106,106,6,0,80,19,2,1,1,0.36,1,0,0,0,768.188,771.871,768548,76,74,152,0
106,106,6,0,1,0,3,-2,-2,NaN,-1,1,1,0,3.87,0,NaN,0,0,0,1
106,106,6,0,2,1,3,1,1,0.906,1,1,0,0,14.736,19.409,15642,77,74,153,1
106,106,6,0,3,2,3,0,1,0.901,0,1,0,0,29.014,32.143,29915,78,75,154,1
106,106,6,0,4,3,3,0,1,0.659,0,1,0,0,36.509,39.461,37168,79,76,155,1
106,106,6,0,5,4,3,0,1,0.565,0,1,0,0,43.992,49.987,44557,80,77,156,1
106,106,6,0,6,5,3,1,0,0.398,0,1,0,0,59.776,64.866,60174,81,78,157,1
106,106,6,0,7,6,3,0,1,1.466,0,1,0,0,72.319,81.396,73785,82,79,158,1
106,106,6,0,8,7,3,1,0,0.518,0,1,0,0,85.633,91.428,86151,83,80,159,1
106,106,6,0,9,8,3,0,0,0.451,1,1,0,0,96.912,101.279,97363,84,81,160,1
106,106,6,0,10,9,3,0,1,0.41,0,1,0,0,108.836,115.322,109246,85,82,161,1
106,106,6,0,11,10,3,0,0,0.558,1,1,0,0,119.16,123.557,119718,86,83,162,1
106,106,6,0,12,11,3,0,0,0.631,1,1,0,0,127.201,130.113,127832,87,84,163,1
106,106,6,0,13,12,3,1,1,1.219,1,1,0,0,133.031,135.425,134250,88,85,164,1
106,106,6,0,14,13,3,1,1,0.747,1,1,0,0,143.253,145.975,144000,89,86,165,1
106,106,6,0,15,14,3,0,1,0.444,0,1,0,0,152.491,159.359,152935,90,87,166,1
106,106,6,0,16,15,3,1,0,1.396,0,1,0,0,162.504,167.265,163900,91,88,167,1
106,106,6,0,17,16,3,0,0,0.551,1,1,0,0,170.896,174.903,171447,92,89,168,1
106,106,6,0,18,17,3,0,0,0.532,1,1,0,0,180.509,184.207,181041,93,90,169,1
106,106,6,0,19,18,3,1,1,0.555,1,1,0,0,187.113,193.803,187668,94,91,170,1
106,106,6,0,20,19,3,0,1,0.649,0,1,0,0,199.213,203.137,199862,95,92,171,1
106,106,6,0,21,0,3,-2,-2,NaN,-1,0,1,0,206.968,0,NaN,0,0,0,0
106,106,6,0,22,1,3,1,1,0.441,1,0,0,0,217.636,223.032,218077,77,75,172,0
106,106,6,0,23,2,3,0,1,0.483,0,0,0,0,229.588,236.164,230071,78,76,173,0
106,106,6,0,24,3,3,1,0,0.885,0,0,0,0,241.226,246.893,242111,79,77,174,0
106,106,6,0,25,4,3,1,1,1.074,1,0,0,0,250.636,255.732,251710,80,78,175,0
106,106,6,0,26,5,3,1,1,0.576,1,0,0,0,260.233,264.809,260809,81,79,176,0
106,106,6,0,27,6,3,0,1,1.225,0,0,0,0,269.011,275.286,270236,82,80,177,0
106,106,6,0,28,7,3,1,0,1.029,0,0,0,0,278.524,282.638,279553,83,81,178,0
106,106,6,0,29,8,3,1,1,0.57,1,0,0,0,287.484,292.676,288054,84,82,179,0
106,106,6,0,30,9,3,1,1,0.445,1,0,0,0,296.279,300.583,296724,85,83,180,0
106,106,6,0,31,10,3,1,0,0.505,0,0,0,0,305.235,313.592,305740,86,84,181,0
106,106,6,0,32,11,3,0,0,0.98,1,0,0,0,316.29,319.479,317270,87,85,182,0
106,106,6,0,33,12,3,1,1,0.384,1,0,0,0,324.037,327.34,324421,88,86,183,0
106,106,6,0,34,13,3,0,0,0.457,1,0,0,0,330.413,333.683,330870,89,87,184,0
106,106,6,0,35,14,3,1,0,1.394,0,0,0,0,336.808,341.597,338202,90,88,185,0
106,106,6,0,36,15,3,0,1,0.478,0,0,0,0,345.412,349.948,345890,91,89,186,0
106,106,6,0,37,16,3,1,1,0.38,1,0,0,0,354.708,360.117,355088,92,90,187,0
106,106,6,0,38,17,3,1,1,0.743,1,0,0,0,363.931,367.801,364674,93,91,188,0
106,106,6,0,39,18,3,1,0,0.4,0,0,0,0,371.089,377.454,371489,94,92,189,0
106,106,6,0,40,19,3,0,0,0.364,1,0,0,0,384.082,387.072,384446,95,93,190,0
106,106,6,0,41,0,3,-2,-2,NaN,-1,1,1,0,393.285,0,NaN,0,0,0,1
106,106,6,0,42,1,3,1,1,0.521,1,1,0,0,400.323,404.729,400844,96,93,191,1
106,106,6,0,43,2,3,1,0,1.012,0,1,0,0,411.323,414.375,412335,97,94,192,1
106,106,6,0,44,3,3,0,0,0.496,1,1,0,0,421.443,427.542,421939,98,95,193,1
106,106,6,0,45,4,3,1,1,0.567,1,1,0,0,433.593,437.587,434160,99,96,194,1
106,106,6,0,46,5,3,1,1,1.341,1,1,0,0,442.846,446.432,444187,100,97,195,1
106,106,6,0,47,6,3,0,1,0.374,0,1,0,0,451.531,457.089,451905,101,98,196,1
106,106,6,0,48,7,3,1,0,0.407,0,1,0,0,460.542,464.777,460949,102,99,197,1
106,106,6,0,49,8,3,1,1,0.385,1,1,0,0,468.287,473.012,468672,103,100,198,1
106,106,6,0,50,9,3,0,1,0.724,0,1,0,0,475.825,481.711,476549,104,101,199,1
106,106,6,0,51,10,3,1,0,0.613,0,1,0,0,485.92,488.905,486533,105,102,200,1
106,106,6,0,52,11,3,0,1,0.417,0,1,0,0,497.373,501.806,497790,106,103,201,1
106,106,6,0,53,12,3,1,0,0.435,0,1,0,0,509.868,513.063,510303,107,104,202,1
106,106,6,0,54,13,3,1,1,0.765,1,1,0,0,517.338,521.291,518103,108,105,203,1
106,106,6,0,55,14,3,1,0,0.434,0,1,0,0,524.895,528.714,525329,109,106,204,1
106,106,6,0,56,15,3,0,0,0.447,1,1,0,0,533.711,537.374,534158,110,107,205,1
106,106,6,0,57,16,3,0,0,0.36,1,1,0,0,542.875,545.594,543235,111,108,206,1
106,106,6,0,58,17,3,0,0,0.38,1,1,0,0,550.634,555.391,551014,112,109,207,1
106,106,6,0,59,18,3,0,0,0.56,1,1,0,0,560.913,565.86,561473,113,110,208,1
106,106,6,0,60,19,3,1,1,0.408,1,1,0,0,568.551,575.9,568959,114,111,209,1
106,106,6,0,61,0,3,-2,-2,NaN,-1,0,1,0,578.563,0,NaN,0,0,0,0
106,106,6,0,62,1,3,0,0,0.514,1,0,0,0,587.955,591.326,588469,96,94,210,0
106,106,6,0,63,2,3,0,0,0.512,1,0,0,0,594.933,597.893,595445,97,95,211,0
106,106,6,0,64,3,3,1,0,0.453,0,0,0,0,605.278,610.706,605731,98,96,212,0
106,106,6,0,65,4,3,0,0,0.487,1,0,0,0,614.712,619.126,615199,99,97,213,0
106,106,6,0,66,5,3,0,1,0.709,0,0,0,0,627.101,631.838,627810,100,98,214,0
106,106,6,0,67,6,3,1,0,0.671,0,0,0,0,637.119,644.159,637790,101,99,215,0
106,106,6,0,68,7,3,1,1,0.396,1,0,0,0,648.801,651.375,649197,102,100,216,0
106,106,6,0,69,8,3,1,1,0.371,1,0,0,0,659.131,663.951,659502,103,101,217,0
106,106,6,0,70,9,3,0,0,0.481,1,0,0,0,671.789,677.054,672270,104,102,218,0
106,106,6,0,71,10,3,0,0,0.469,1,0,0,0,680.883,684.162,681352,105,103,219,0
106,106,6,0,72,11,3,1,0,0.384,0,0,0,0,688.345,691.762,688729,106,104,220,0
106,106,6,0,73,12,3,1,0,0.744,0,0,0,0,701.143,705.995,701887,107,105,221,0
106,106,6,0,74,13,3,1,1,0.45,1,0,0,0,710.063,713.271,710513,108,106,222,0
106,106,6,0,75,14,3,1,1,0.637,1,0,0,0,715.972,722.383,716609,109,107,223,0
106,106,6,0,76,15,3,0,0,0.42,1,0,0,0,726.526,731.545,726946,110,108,224,0
106,106,6,0,77,16,3,1,1,0.53,1,0,0,0,734.991,740.49,735521,111,109,225,0
106,106,6,0,78,17,3,1,0,0.359,0,0,0,0,746.271,751.792,746630,112,110,226,0
106,106,6,0,79,18,3,0,0,0.41,1,0,0,0,755.773,759.187,756183,113,111,227,0
106,106,6,0,80,19,3,1,0,0.44,0,0,0,0,763.457,767.451,763897,114,112,228,0
107,107,7,0,1,0,1,-2,-2,NaN,-1,1,1,0,4.142,0,NaN,0,0,0,1
107,107,7,0,2,1,1,1,0,1.454,0,1,0,0,13.025,22.021,14479,1,1,1,1
107,107,7,0,3,2,1,1,0,0.576,0,1,0,0,28.65,31.436,29226,2,2,2,1
107,107,7,0,4,3,1,0,0,0.439,1,1,0,0,36.037,41.012,36476,3,3,3,1
107,107,7,0,5,4,1,0,0,0.405,1,1,0,0,46.545,51.088,46950,4,4,4,1
107,107,7,0,6,5,1,0,0,0.815,1,1,0,0,54.274,59.666,55089,5,5,5,1
107,107,7,0,7,6,1,0,0,0.711,1,1,0,0,65.706,69.282,66417,6,6,6,1
107,107,7,0,8,7,1,0,0,0.734,1,1,0,0,74.299,80.06,75033,7,7,7,1
107,107,7,0,9,8,1,1,1,0.392,1,1,0,0,86.159,90.953,86551,8,8,8,1
107,107,7,0,10,9,1,0,1,0.478,0,1,0,0,96.77,100.939,97248,9,9,9,1
107,107,7,0,11,10,1,1,0,0.347,0,1,0,0,106.237,109.847,106584,10,10,10,1
107,107,7,0,12,11,1,1,1,0.317,1,1,0,0,114.343,119.89,114660,11,11,11,1
107,107,7,0,13,12,1,0,1,0.451,0,1,0,0,123.272,129.64,123723,12,12,12,1
107,107,7,0,14,13,1,0,1,0.56,0,1,0,0,135.881,142.471,136441,13,13,13,1
107,107,7,0,15,14,1,0,1,1.424,0,1,0,0,146.062,149.948,147486,14,14,14,1
107,107,7,0,16,15,1,1,0,0.365,0,1,0,0,155.723,162.228,156088,15,15,15,1
107,107,7,0,17,16,1,0,0,0.465,1,1,0,0,168.249,172.39,168714,16,16,16,1
107,107,7,0,18,17,1,1,1,0.389,1,1,0,0,176.898,180.652,177287,17,17,17,1
107,107,7,0,19,18,1,0,1,0.332,0,1,0,0,184.565,193.967,184897,18,18,18,1
107,107,7,0,20,19,1,1,0,1.086,0,1,0,0,200.076,202.965,201162,19,19,19,1
107,107,7,0,21,0,1,-2,-2,NaN,-1,0,1,0,208.683,0,NaN,0,0,0,0
107,107,7,0,22,1,1,0,0,0.477,1,0,0,0,218.286,223.591,218763,1,1,20,0
107,107,7,0,23,2,1,1,1,0.362,1,0,0,0,229.224,232.831,229586,2,2,21,0
107,107,7,0,24,3,1,0,0,1.837,1,0,0,0,236.591,243.08,238428,3,3,22,0
107,107,7,0,25,4,1,0,1,0.439,0,0,0,0,247.672,251.548,248111,4,4,23,0
107,107,7,0,26,5,1,1,0,0.435,0,0,0,0,257.028,263.309,257463,5,5,24,0
107,107,7,0,27,6,1,0,0,0.566,1,0,0,0,266.334,269.727,266900,6,6,25,0
107,107,7,0,28,7,1,0,1,0.36,0,0,0,0,273.358,276.271,273718,7,7,26,0
107,107,7,0,29,8,1,#NAME?,NaN,NaN,0,0,0,1,278.96,283.721,NaN,8,0,27,0
107,107,7,0,30,9,1,1,1,0.35,1,0,0,0,287.524,292.639,287874,9,8,28,0
107,107,7,0,31,10,1,1,1,0.614,1,0,0,0,297.067,302.098,297681,10,9,29,0
107,107,7,0,32,11,1,0,0,0.379,1,0,0,0,306.113,310.61,306492,11,10,30,0
107,107,7,0,33,12,1,1,0,0.638,0,0,0,0,313.308,318.071,313946,12,11,31,0
107,107,7,0,34,13,1,1,0,0.83,0,0,0,0,321.032,323.929,321862,13,12,32,0
107,107,7,0,35,14,1,1,1,0.958,1,0,0,0,328.606,333.255,329564,14,13,33,0
107,107,7,0,36,15,1,0,1,0.52,0,0,0,0,336.343,340.939,336863,15,14,34,0
107,107,7,0,37,16,1,1,0,0.494,0,0,0,0,343.949,347.348,344443,16,15,35,0
107,107,7,0,38,17,1,0,0,0.621,1,0,0,0,351.153,353.517,351774,17,16,36,0
107,107,7,0,39,18,1,0,0,0.354,1,0,0,0,358.04,363.505,358394,18,17,37,0
107,107,7,0,40,19,1,0,0,0.344,1,0,0,0,368.101,372.215,368445,19,18,38,0
107,107,7,0,41,0,1,-2,-2,NaN,-1,1,1,0,377.604,0,NaN,0,0,0,1
107,107,7,0,42,1,1,1,0,0.487,0,1,0,0,385.642,387.999,386129,20,20,39,1
107,107,7,0,43,2,1,0,0,0.265,1,1,0,0,393.104,397.052,393369,21,21,40,1
107,107,7,0,44,3,1,0,0,1.105,1,1,0,0,399.904,403.791,401009,22,22,41,1
107,107,7,0,45,4,1,1,1,0.4,1,1,0,0,410.188,416.565,410588,23,23,42,1
107,107,7,0,46,5,1,0,1,0.668,0,1,0,0,419.808,422.894,420476,24,24,43,1
107,107,7,0,47,6,1,1,0,0.325,0,1,0,0,427.81,434.112,428135,25,25,44,1
107,107,7,0,48,7,1,0,1,1.389,0,1,0,0,439.051,444.114,440440,26,26,45,1
107,107,7,0,49,8,1,1,0,0.402,0,1,0,0,448.011,451.993,448413,27,27,46,1
107,107,7,0,50,9,1,0,0,0.604,1,1,0,0,456.774,461.867,457378,28,28,47,1
107,107,7,0,51,10,1,1,1,0.46,1,1,0,0,465.009,472.283,465469,29,29,48,1
107,107,7,0,52,11,1,1,1,0.572,1,1,0,0,475.176,480.254,475748,30,30,49,1
107,107,7,0,53,12,1,0,1,0.468,0,1,0,0,485.933,489.373,486401,31,31,50,1
107,107,7,0,54,13,1,0,0,0.571,1,1,0,0,492.617,496.022,493188,32,32,51,1
107,107,7,0,55,14,1,0,0,0.592,1,1,0,0,499.016,503.556,499608,33,33,52,1
107,107,7,0,56,15,1,1,1,0.317,1,1,0,0,510.482,514.358,510799,34,34,53,1
107,107,7,0,57,16,1,1,1,0.438,1,1,0,0,519.505,525.728,519943,35,35,54,1
107,107,7,0,58,17,1,0,1,0.515,0,1,0,0,533.071,537.518,533586,36,36,55,1
107,107,7,0,59,18,1,1,0,0.349,0,1,0,0,541.035,544.028,541384,37,37,56,1
107,107,7,0,60,19,1,0,0,0.307,1,1,0,0,550.354,556.758,550661,38,38,57,1
107,107,7,0,61,0,1,-2,-2,NaN,-1,0,1,0,560.39,0,NaN,0,0,0,0
107,107,7,0,62,1,1,1,1,0.762,1,0,0,0,569.013,572.775,569775,20,19,58,0
107,107,7,0,63,2,1,1,1,0.498,1,0,0,0,581.018,587.211,581516,21,20,59,0
107,107,7,0,64,3,1,0,1,0.617,0,0,0,0,592.377,597.409,592994,22,21,60,0
107,107,7,0,65,4,1,1,0,0.447,0,0,0,0,604.882,610.868,605329,23,22,61,0
107,107,7,0,66,5,1,0,1,0.918,0,0,0,0,615.355,621.531,616273,24,23,62,0
107,107,7,0,67,6,1,1,1,0.33,1,0,0,0,628.39,631.047,628720,25,24,63,0
107,107,7,0,68,7,1,1,1,0.369,1,0,0,0,636.344,640.715,636713,26,25,64,0
107,107,7,0,69,8,1,0,1,0.333,0,0,0,0,648.146,651.247,648479,27,26,65,0
107,107,7,0,70,9,1,0,0,0.354,1,0,0,0,654.972,660.862,655326,28,27,66,0
107,107,7,0,71,10,1,1,1,1.88,1,0,0,0,664.437,671.417,666317,29,28,67,0
107,107,7,0,72,11,1,0,1,0.362,0,0,0,0,676.337,683.898,676699,30,29,68,0
107,107,7,0,73,12,1,1,0,0.504,0,0,0,0,688.709,692.302,689213,31,30,69,0
107,107,7,0,74,13,1,1,0,0.452,0,0,0,0,695.04,702.115,695492,32,31,70,0
107,107,7,0,75,14,1,1,1,0.287,1,0,0,0,709.471,715.312,709758,33,32,71,0
107,107,7,0,76,15,1,0,0,0.809,1,0,0,0,718.488,724.863,719297,34,33,72,0
107,107,7,0,77,16,1,1,0,1.176,0,0,0,0,729.05,731.758,730226,35,34,73,0
107,107,7,0,78,17,1,1,0,0.412,0,0,0,0,737.949,741.789,738361,36,35,74,0
107,107,7,0,79,18,1,0,0,0.419,1,0,0,0,751.073,755.882,751492,37,36,75,0
107,107,7,0,80,19,1,0,1,0.24,0,0,0,0,760.76,765.29,761000,38,37,76,0
107,107,7,0,1,0,2,-2,-2,NaN,-1,1,1,0,6.12,0,NaN,0,0,0,1
107,107,7,0,2,1,2,0,1,1.573,0,1,0,0,15.244,17.995,16817,39,39,77,1
107,107,7,0,3,2,2,0,0,0.475,1,1,0,0,26.093,30.967,26568,40,40,78,1
107,107,7,0,4,3,2,1,1,0.388,1,1,0,0,35.576,41.833,35964,41,41,79,1
107,107,7,0,5,4,2,0,1,0.343,0,1,0,0,45.819,51.878,46162,42,42,80,1
107,107,7,0,6,5,2,0,1,0.377,0,1,0,0,56.074,60.407,56451,43,43,81,1
107,107,7,0,7,6,2,0,1,0.326,0,1,0,0,64.086,68.114,64412,44,44,82,1
107,107,7,0,8,7,2,1,0,0.552,0,1,0,0,72.299,81.903,72851,45,45,83,1
107,107,7,0,9,8,2,1,0,0.544,0,1,0,0,85.092,89.84,85636,46,46,84,1
107,107,7,0,10,9,2,0,0,0.971,1,1,0,0,93.088,96.885,94059,47,47,85,1
107,107,7,0,11,10,2,0,0,0.28,1,1,0,0,104.797,107.811,105077,48,48,86,1
107,107,7,0,12,11,2,0,0,0.891,1,1,0,0,110.637,114.74,111528,49,49,87,1
107,107,7,0,13,12,2,1,1,0.335,1,1,0,0,119.376,123.328,119711,50,50,88,1
107,107,7,0,14,13,2,1,1,0.369,1,1,0,0,128.167,136.723,128536,51,51,89,1
107,107,7,0,15,14,2,1,0,0.399,0,1,0,0,141.737,147.534,142136,52,52,90,1
107,107,7,0,16,15,2,1,1,0.362,1,1,0,0,156.466,159.642,156828,53,53,91,1
107,107,7,0,17,16,2,1,1,0.431,1,1,0,0,165.888,169.906,166319,54,54,92,1
107,107,7,0,18,17,2,1,0,0.35,0,1,0,0,174.974,180.895,175324,55,55,93,1
107,107,7,0,19,18,2,0,0,0.416,1,1,0,0,184.204,188.616,184620,56,56,94,1
107,107,7,0,20,19,2,0,1,0.725,0,1,0,0,192.679,200.248,193404,57,57,95,1
107,107,7,0,21,0,2,-2,-2,NaN,-1,0,1,0,203.887,0,NaN,0,0,0,0
107,107,7,0,22,1,2,1,0,1.93,0,0,0,0,215.167,220.708,217097,39,38,96,0
107,107,7,0,23,2,2,0,0,0.587,1,0,0,0,225.935,228.403,226522,40,39,97,0
107,107,7,0,24,3,2,0,0,0.457,1,0,0,0,232.097,235.664,232554,41,40,98,0
107,107,7,0,25,4,2,1,0,0.677,0,0,0,0,241.246,246.677,241923,42,41,99,0
107,107,7,0,26,5,2,1,0,0.66,0,0,0,0,250.847,258.099,251507,43,42,100,0
107,107,7,0,27,6,2,0,0,0.58,1,0,0,0,265.708,269.384,266288,44,43,101,0
107,107,7,0,28,7,2,0,0,0.358,1,0,0,0,272.084,275.116,272442,45,44,102,0
107,107,7,0,29,8,2,0,1,0.358,0,0,0,0,282.322,287.81,282680,46,45,103,0
107,107,7,0,30,9,2,1,0,0.331,0,0,0,0,295.802,299.145,296133,47,46,104,0
107,107,7,0,31,10,2,0,0,0.654,1,0,0,0,304.117,308.81,304771,48,47,105,0
107,107,7,0,32,11,2,0,0,0.445,1,0,0,0,312.069,315.805,312514,49,48,106,0
107,107,7,0,33,12,2,1,0,0.404,0,0,0,0,323.614,328.328,324018,50,49,107,0
107,107,7,0,34,13,2,0,1,0.33,0,0,0,0,334.816,338.658,335146,51,50,108,0
107,107,7,0,35,14,2,1,1,0.379,1,0,0,0,341.844,347.4,342223,52,51,109,0
107,107,7,0,36,15,2,1,1,0.454,1,0,0,0,351.221,356.01,351675,53,52,110,0
107,107,7,0,37,16,2,1,0,0.818,0,0,0,0,361.803,369.756,362621,54,53,111,0
107,107,7,0,38,17,2,0,1,0.506,0,0,0,0,373.948,377.303,374454,55,54,112,0
107,107,7,0,39,18,2,1,1,0.503,1,0,0,0,381.703,388.145,382206,56,55,113,0
107,107,7,0,40,19,2,0,0,0.771,1,0,0,0,391.174,400.112,391945,57,56,114,0
107,107,7,0,41,0,2,-2,-2,NaN,-1,1,1,0,403.173,0,NaN,0,0,0,1
107,107,7,0,42,1,2,1,1,0.407,1,1,0,0,410.672,416.43,411079,58,58,115,1
107,107,7,0,43,2,2,0,1,0.656,0,1,0,0,419.12,422.198,419776,59,59,116,1
107,107,7,0,44,3,2,0,1,1.38,0,1,0,0,424.897,428.453,426277,60,60,117,1
107,107,7,0,45,4,2,0,1,0.349,0,1,0,0,436.95,440.347,437299,61,61,118,1
107,107,7,0,46,5,2,1,0,0.576,0,1,0,0,443.487,448.842,444063,62,62,119,1
107,107,7,0,47,6,2,1,0,0.752,0,1,0,0,455.263,460.931,456015,63,63,120,1
107,107,7,0,48,7,2,0,0,0.7,1,1,0,0,463.633,468.652,464333,64,64,121,1
107,107,7,0,49,8,2,1,1,0.668,1,1,0,0,471.745,474.193,472413,65,65,122,1
107,107,7,0,50,9,2,1,0,0.301,0,1,0,0,482.857,491.296,483158,66,66,123,1
107,107,7,0,51,10,2,1,1,0.416,1,1,0,0,495.75,499.958,496166,67,67,124,1
107,107,7,0,52,11,2,0,0,0.621,1,1,0,0,503.427,505.955,504048,68,68,125,1
107,107,7,0,53,12,2,0,0,1.144,1,1,0,0,511.018,514.907,512162,69,69,126,1
107,107,7,0,54,13,2,1,1,0.395,1,1,0,0,520.409,524.825,520804,70,70,127,1
107,107,7,0,55,14,2,1,0,0.406,0,1,0,0,530.883,535.478,531289,71,71,128,1
107,107,7,0,56,15,2,1,1,0.39,1,1,0,0,538.915,544.322,539305,72,72,129,1
107,107,7,0,57,16,2,0,1,0.461,0,1,0,0,549.232,554.502,549693,73,73,130,1
107,107,7,0,58,17,2,1,0,0.594,0,1,0,0,557.627,562.095,558221,74,74,131,1
107,107,7,0,59,18,2,0,1,0.323,0,1,0,0,566.938,574.464,567261,75,75,132,1
107,107,7,0,60,19,2,0,1,1.902,0,1,0,0,577.527,580.895,579429,76,76,133,1
107,107,7,0,61,0,2,-2,-2,NaN,-1,0,1,0,583.549,0,NaN,0,0,0,0
107,107,7,0,62,1,2,1,0,0.637,0,0,0,0,592.816,598.843,593453,58,57,134,0
107,107,7,0,63,2,2,0,0,0.39,1,0,0,0,603.069,608.153,603459,59,58,135,0
107,107,7,0,64,3,2,1,1,0.502,1,0,0,0,614.146,618.223,614648,60,59,136,0
107,107,7,0,65,4,2,0,1,0.404,0,0,0,0,621.368,626.242,621772,61,60,137,0
107,107,7,0,66,5,2,1,0,0.432,0,0,0,0,629.763,632.899,630195,62,61,138,0
107,107,7,0,67,6,2,0,0,0.494,1,0,0,0,636.854,639.654,637348,63,62,139,0
107,107,7,0,68,7,2,1,1,0.461,1,0,0,0,645.005,653.105,645466,64,63,140,0
107,107,7,0,69,8,2,0,1,0.322,0,0,0,0,660.102,663.269,660424,65,64,141,0
107,107,7,0,70,9,2,1,0,0.598,0,0,0,0,666.366,670.652,666964,66,65,142,0
107,107,7,0,71,10,2,1,1,0.47,1,0,0,0,673.602,679.643,674072,67,66,143,0
107,107,7,0,72,11,2,1,1,0.471,1,0,0,0,686.177,689.009,686648,68,67,144,0
107,107,7,0,73,12,2,1,0,0.681,0,0,0,0,693.755,698.099,694436,69,68,145,0
107,107,7,0,74,13,2,0,1,0.54,0,0,0,0,702.913,711.236,703453,70,69,146,0
107,107,7,0,75,14,2,1,1,0.373,1,0,0,0,716.377,723.868,716750,71,70,147,0
107,107,7,0,76,15,2,#NAME?,NaN,NaN,1,0,0,1,727.496,732.545,NaN,72,0,148,0
107,107,7,0,77,16,2,1,0,0.836,0,0,0,0,735.659,741.027,736495,73,71,149,0
107,107,7,0,78,17,2,1,0,0.456,0,0,0,0,745.141,747.514,745597,74,72,150,0
107,107,7,0,79,18,2,0,1,0.365,0,0,0,0,751.219,754.125,751584,75,73,151,0
107,107,7,0,80,19,2,1,1,0.419,1,0,0,0,759.88,765.744,760299,76,74,152,0
107,107,7,0,1,0,3,-2,-2,NaN,-1,1,1,0,5.118,0,NaN,0,0,0,1
107,107,7,0,2,1,3,0,0,1.378,1,1,0,0,14.453,22.23,15831,77,77,153,1
107,107,7,0,3,2,3,1,1,1.072,1,1,0,0,26.247,34.566,27319,78,78,154,1
107,107,7,0,4,3,3,1,0,0.414,0,1,0,0,38.059,41.528,38473,79,79,155,1
107,107,7,0,5,4,3,1,1,0.493,1,1,0,0,48.431,50.92,48924,80,80,156,1
107,107,7,0,6,5,3,0,1,0.433,0,1,0,0,56.485,62.34,56918,81,81,157,1
107,107,7,0,7,6,3,1,0,0.352,0,1,0,0,66.766,71.094,67118,82,82,158,1
107,107,7,0,8,7,3,0,0,0.364,1,1,0,0,75.397,81.666,75761,83,83,159,1
107,107,7,0,9,8,3,1,1,0.616,1,1,0,0,86.524,91.538,87140,84,84,160,1
107,107,7,0,10,9,3,1,0,0.419,0,1,0,0,98.545,103.513,98964,85,85,161,1
107,107,7,0,11,10,3,0,0,0.641,1,1,0,0,107.093,112.793,107734,86,86,162,1
107,107,7,0,12,11,3,1,1,0.384,1,1,0,0,121.096,125.936,121480,87,87,163,1
107,107,7,0,13,12,3,1,0,0.418,0,1,0,0,129.192,131.42,129610,88,88,164,1
107,107,7,0,14,13,3,1,1,0.392,1,1,0,0,135.11,138.197,135502,89,89,165,1
107,107,7,0,15,14,3,0,1,0.387,0,1,0,0,141.909,146.128,142296,90,90,166,1
107,107,7,0,16,15,3,1,1,0.312,1,1,0,0,150.231,154.726,150543,91,91,167,1
107,107,7,0,17,16,3,0,1,0.534,0,1,0,0,157.773,161.048,158307,92,92,168,1
107,107,7,0,18,17,3,0,1,0.317,0,1,0,0,163.814,168.113,164131,93,93,169,1
107,107,7,0,19,18,3,1,0,0.42,0,1,0,0,174.608,177.865,175028,94,94,170,1
107,107,7,0,20,19,3,1,0,0.417,0,1,0,0,181.534,185.815,181951,95,95,171,1
107,107,7,0,21,0,3,-2,-2,NaN,-1,0,1,0,190.605,0,NaN,0,0,0,0
107,107,7,0,22,1,3,0,0,1.302,1,0,0,0,200.554,208.324,201856,77,75,172,0
107,107,7,0,23,2,3,0,1,0.347,0,0,0,0,212.885,215.783,213232,78,76,173,0
107,107,7,0,24,3,3,0,1,0.368,0,0,0,0,219.225,224.795,219593,79,77,174,0
107,107,7,0,25,4,3,0,0,0.476,1,0,0,0,228.37,232.349,228846,80,78,175,0
107,107,7,0,26,5,3,0,0,0.286,1,0,0,0,241.753,245.028,242039,81,79,176,0
107,107,7,0,27,6,3,1,0,0.658,0,0,0,0,248.15,251.798,248808,82,80,177,0
107,107,7,0,28,7,3,0,1,0.661,0,0,0,0,255.815,261.467,256476,83,81,178,0
107,107,7,0,29,8,3,1,1,0.329,1,0,0,0,265.58,270.826,265909,84,82,179,0
107,107,7,0,30,9,3,0,0,0.355,1,0,0,0,273.971,276.53,274326,85,83,180,0
107,107,7,0,31,10,3,1,0,0.418,0,0,0,0,285.889,291.519,286307,86,84,181,0
